,subject_id,date,handedness,lang,trial_num,sequence,seq_length,formula,correct_resp,subj_form_resp,accuracy_formula,rt_formula
0,ahs18,2020/11/20 10:21:45,right,en,NA,haircut,3,1+1=0,0,0,1,1.2014635230007116
1,ahs18,2020/11/20 10:21:45,right,en,NA,"haircut, time",3,1+4=5,1,1,1,1.314166681999268
2,ahs18,2020/11/20 10:21:45,right,en,NA,"haircut, time, mug",3,1+4=6,0,0,1,0.7826975890002359
3,ahs18,2020/11/20 10:21:45,right,en,NA,lizard,3,1+5=6,1,1,1,0.7835989389986935
4,ahs18,2020/11/20 10:21:45,right,en,NA,"lizard, dad",3,10-2=8,1,1,1,0.8289762349995726
5,ahs18,2020/11/20 10:21:45,right,en,NA,"lizard, dad, glider",3,10-3=7,1,1,1,1.2912649530007911
6,ahs18,2020/11/20 10:21:45,right,en,NA,couch,3,10-3=8,0,0,1,1.0406298440011597
7,ahs18,2020/11/20 10:21:45,right,en,NA,"couch, trench",3,11-1=10,1,1,1,1.006797264000852
8,ahs18,2020/11/20 10:21:45,right,en,NA,"couch, trench, atom",3,2+2=4,1,1,1,0.8186616240000149
9,ahs18,2020/11/20 10:21:45,right,en,NA,spider,4,2+7=6,0,0,1,1.390975360000084
10,ahs18,2020/11/20 10:21:45,right,en,NA,"spider, mud",4,2+7=9,1,1,1,1.3199291460005043
11,ahs18,2020/11/20 10:21:45,right,en,NA,"spider, mud, head",4,2+8=10,1,1,1,1.270401880999998
12,ahs18,2020/11/20 10:21:45,right,en,NA,"spider, mud, head, throne",4,20-5=15,1,1,1,0.9835705999994389
13,ahs18,2020/11/20 10:21:45,right,en,NA,queen,4,3-1=2,1,1,1,0.8665475939997123
14,ahs18,2020/11/20 10:21:45,right,en,NA,"queen, flower",4,3+2=5,1,1,1,0.17776978199981386
15,ahs18,2020/11/20 10:21:45,right,en,NA,"queen, flower, barber",4,3+6=8,0,0,1,1.34262937099993
16,ahs18,2020/11/20 10:21:45,right,en,NA,"queen, flower, barber, school",4,3+7=10,1,1,1,1.396373493000283
17,ahs18,2020/11/20 10:21:45,right,en,NA,book,4,4-3=2,0,0,1,0.09352406099969812
18,ahs18,2020/11/20 10:21:45,right,en,NA,"book, beans",4,4+5=9,1,1,1,1.767333816998871
19,ahs18,2020/11/20 10:21:45,right,en,NA,"book, beans, chair",4,4+6=10,1,1,1,2.052374756000063
20,ahs18,2020/11/20 10:21:45,right,en,NA,"book, beans, chair, measure",4,4+7=11,1,1,1,0.989436953999757
21,ahs18,2020/11/20 10:21:45,right,en,NA,shovel,5,5-1=4,1,1,1,2.1837537339997652
22,ahs18,2020/11/20 10:21:45,right,en,NA,"shovel, port",5,5-2=3,1,1,1,1.7913449790012237
23,ahs18,2020/11/20 10:21:45,right,en,NA,"shovel, port, army",5,5+3=8,1,1,1,0.5554561249991821
24,ahs18,2020/11/20 10:21:45,right,en,NA,"shovel, port, army, drill",5,5+3=9,0,0,1,0.9295508830000472
25,ahs18,2020/11/20 10:21:45,right,en,NA,"shovel, port, army, drill, stone",5,5+8=15,0,0,1,4.0443005970009835
26,ahs18,2020/11/20 10:21:45,right,en,NA,puma,5,6-4=2,1,1,1,0.8649041130011028
27,ahs18,2020/11/20 10:21:45,right,en,NA,"puma, lamp",5,6-4=3,0,0,1,1.5203333209992707
28,ahs18,2020/11/20 10:21:45,right,en,NA,"puma, lamp, farm",5,6+3=11,0,0,1,1.7329383579999558
29,ahs18,2020/11/20 10:21:45,right,en,NA,"puma, lamp, farm, radar",5,6+3=8,0,0,1,3.083392755999739
30,ahs18,2020/11/20 10:21:45,right,en,NA,"puma, lamp, farm, radar, jury",5,7-5=4,0,0,1,1.252279066000483
31,ahs18,2020/11/20 10:21:45,right,en,NA,phone,5,7+2=10,0,0,1,1.7641671130004397
32,ahs18,2020/11/20 10:21:45,right,en,NA,"phone, stocking",5,7+3=10,1,1,1,0.7307095209998806
33,ahs18,2020/11/20 10:21:45,right,en,NA,"phone, stocking, toe",5,8-4=4,1,1,1,1.2665287199997692
34,ahs18,2020/11/20 10:21:45,right,en,NA,"phone, stocking, toe, pea",5,8-5=2,0,0,1,3.7963433870008885
35,ahs18,2020/11/20 10:21:45,right,en,NA,"phone, stocking, toe, pea, pencil",5,8-6=2,1,1,1,1.3945222769998509
36,ahs18,2020/11/20 10:21:45,right,en,NA,soldier,6,8+4=10,0,0,1,0.6813865380008792
37,ahs18,2020/11/20 10:21:45,right,en,NA,"soldier, cup",6,9-2=7,1,1,1,0.7651792289998411
38,ahs18,2020/11/20 10:21:45,right,en,NA,"soldier, cup, rain",6,9-2=8,0,0,1,1.2626193619998958
39,ahs18,2020/11/20 10:21:45,right,en,NA,"soldier, cup, rain, food",6,9-3=8,0,0,1,1.7829117630008113
40,ahs18,2020/11/20 10:21:45,right,en,NA,"soldier, cup, rain, food, pilot",6,1+1=0,0,0,1,0.7892963389986107
41,ahs18,2020/11/20 10:21:45,right,en,NA,"soldier, cup, rain, food, pilot, pond",6,1+4=5,1,1,1,1.092178282999157
42,ahs18,2020/11/20 10:21:45,right,en,NA,font,6,1+4=6,0,0,1,2.514080544000535
43,ahs18,2020/11/20 10:21:45,right,en,NA,"font, bear",6,1+5=6,1,1,1,1.0624778370001877
44,ahs18,2020/11/20 10:21:45,right,en,NA,"font, bear, bus",6,10-2=8,1,1,1,0.7090834390000964
45,ahs18,2020/11/20 10:21:45,right,en,NA,"font, bear, bus, dollar",6,10-3=7,1,1,1,0.775649280001744
46,ahs18,2020/11/20 10:21:45,right,en,NA,"font, bear, bus, dollar, payment",6,10-3=8,0,0,1,1.8300174479991256
47,ahs18,2020/11/20 10:21:45,right,en,NA,"font, bear, bus, dollar, payment, beef",6,11-1=10,1,1,1,2.8127287509996677
48,ahs18,2020/11/20 10:21:45,right,en,NA,sun,6,2+2=4,1,1,1,0.5667880720011453
49,ahs18,2020/11/20 10:21:45,right,en,NA,"sun, toy",6,2+7=6,0,0,1,1.8333784839996952
50,ahs18,2020/11/20 10:21:45,right,en,NA,"sun, toy, dog",6,2+7=9,1,1,1,3.8242578150002373
51,ahs18,2020/11/20 10:21:45,right,en,NA,"sun, toy, dog, table",6,2+8=10,1,1,1,0.6890484989999095
52,ahs18,2020/11/20 10:21:45,right,en,NA,"sun, toy, dog, table, eye",6,20-5=15,1,1,1,1.763961915999971
53,ahs18,2020/11/20 10:21:45,right,en,NA,"sun, toy, dog, table, eye, bowling",6,3-1=2,1,1,1,0.9841082370003278
