,subject_id,date,handedness,lang,trial_num,sequence,seq_length,formula,correct_resp,subj_form_resp,accuracy_formula,rt_formula
0,ahs22,2020/12/05 13:57:57,right,en,NA,haircut,3,1+1=0,0,0,1,2.294924035000804
1,ahs22,2020/12/05 13:57:57,right,en,NA,"haircut, time",3,1+4=5,1,1,1,1.6031756289994519
2,ahs22,2020/12/05 13:57:57,right,en,NA,"haircut, time, mug",3,1+4=6,0,0,1,4.293068340999525
3,ahs22,2020/12/05 13:57:57,right,en,NA,lizard,3,1+5=6,1,1,1,2.165800290000334
4,ahs22,2020/12/05 13:57:57,right,en,NA,"lizard, dad",3,10-2=8,1,1,1,0.9475473130005412
5,ahs22,2020/12/05 13:57:57,right,en,NA,"lizard, dad, glider",3,10-3=7,1,1,1,1.6769503650011757
6,ahs22,2020/12/05 13:57:57,right,en,NA,couch,3,10-3=8,0,0,1,2.1414500979990407
7,ahs22,2020/12/05 13:57:57,right,en,NA,"couch, trench",3,11-1=10,1,1,1,1.317097647999617
8,ahs22,2020/12/05 13:57:57,right,en,NA,"couch, trench, atom",3,2+2=4,1,1,1,1.629106321001018
9,ahs22,2020/12/05 13:57:57,right,en,NA,spider,4,2+7=6,0,0,1,4.104775474999769
10,ahs22,2020/12/05 13:57:57,right,en,NA,"spider, mud",4,2+7=9,1,1,1,2.293692392000594
11,ahs22,2020/12/05 13:57:57,right,en,NA,"spider, mud, head",4,2+8=10,1,1,1,1.1717755980007496
12,ahs22,2020/12/05 13:57:57,right,en,NA,"spider, mud, head, throne",4,20-5=15,1,1,1,0.9077654869997787
13,ahs22,2020/12/05 13:57:57,right,en,NA,queen,4,3-1=2,1,1,1,1.6878098260003753
14,ahs22,2020/12/05 13:57:57,right,en,NA,"queen, flower",4,3+2=5,1,1,1,0.2854346220010484
15,ahs22,2020/12/05 13:57:57,right,en,NA,"queen, flower, barber",4,3+6=8,0,0,1,3.6541015630009497
16,ahs22,2020/12/05 13:57:57,right,en,NA,"queen, flower, barber, school",4,3+7=10,1,1,1,2.255527612998776
17,ahs22,2020/12/05 13:57:57,right,en,NA,book,4,4-3=2,0,0,1,4.387642257001062
18,ahs22,2020/12/05 13:57:57,right,en,NA,"book, beans",4,4+5=9,1,1,1,1.7933637619989895
19,ahs22,2020/12/05 13:57:57,right,en,NA,"book, beans, chair",4,4+6=10,1,1,1,2.6375387940006476
20,ahs22,2020/12/05 13:57:57,right,en,NA,"book, beans, chair, measure",4,4+7=11,1,1,1,3.3438495410009637
21,ahs22,2020/12/05 13:57:57,right,en,NA,shovel,5,5-1=4,1,1,1,1.3768835189985111
22,ahs22,2020/12/05 13:57:57,right,en,NA,"shovel, port",5,5-2=3,1,1,1,3.1870472990012786
23,ahs22,2020/12/05 13:57:57,right,en,NA,"shovel, port, army",5,5+3=8,1,0,0,2.502318803999515
24,ahs22,2020/12/05 13:57:57,right,en,NA,"shovel, port, army, drill",5,5+3=9,0,1,0,0.9318948710006225
25,ahs22,2020/12/05 13:57:57,right,en,NA,"shovel, port, army, drill, stone",5,5+8=15,0,0,1,6.088583226999617
26,ahs22,2020/12/05 13:57:57,right,en,NA,puma,5,6-4=2,1,1,1,3.289929270000357
27,ahs22,2020/12/05 13:57:57,right,en,NA,"puma, lamp",5,6-4=3,0,0,1,2.8400100660001044
28,ahs22,2020/12/05 13:57:57,right,en,NA,"puma, lamp, farm",5,6+3=11,0,0,1,2.8068018009998923
29,ahs22,2020/12/05 13:57:57,right,en,NA,"puma, lamp, farm, radar",5,6+3=8,0,0,1,4.179083184999399
30,ahs22,2020/12/05 13:57:57,right,en,NA,"puma, lamp, farm, radar, jury",5,7-5=4,0,0,1,3.8819193140006973
31,ahs22,2020/12/05 13:57:57,right,en,NA,phone,5,7+2=10,0,0,1,2.0187420759993984
32,ahs22,2020/12/05 13:57:57,right,en,NA,"phone, stocking",5,7+3=10,1,0,0,1.9417423269987921
33,ahs22,2020/12/05 13:57:57,right,en,NA,"phone, stocking, toe",5,8-4=4,1,1,1,3.2363642860000255
34,ahs22,2020/12/05 13:57:57,right,en,NA,"phone, stocking, toe, pea",5,8-5=2,0,0,1,2.709164313999281
35,ahs22,2020/12/05 13:57:57,right,en,NA,"phone, stocking, toe, pea, pencil",5,8-6=2,1,1,1,2.565413152999099
36,ahs22,2020/12/05 13:57:57,right,en,NA,soldier,6,8+4=10,0,0,1,2.9989386610013753
37,ahs22,2020/12/05 13:57:57,right,en,NA,"soldier, cup",6,9-2=7,1,1,1,1.4799306360000628
38,ahs22,2020/12/05 13:57:57,right,en,NA,"soldier, cup, rain",6,9-2=8,0,0,1,1.43626269699962
39,ahs22,2020/12/05 13:57:57,right,en,NA,"soldier, cup, rain, food",6,9-3=8,0,0,1,1.0616271439994307
40,ahs22,2020/12/05 13:57:57,right,en,NA,"soldier, cup, rain, food, pilot",6,1+1=0,0,0,1,1.656622642000002
41,ahs22,2020/12/05 13:57:57,right,en,NA,"soldier, cup, rain, food, pilot, pond",6,1+4=5,1,1,1,2.06042215799971
42,ahs22,2020/12/05 13:57:57,right,en,NA,font,6,1+4=6,0,0,1,1.2487403079994692
43,ahs22,2020/12/05 13:57:57,right,en,NA,"font, bear",6,1+5=6,1,0,0,1.1531820889995288
44,ahs22,2020/12/05 13:57:57,right,en,NA,"font, bear, bus",6,10-2=8,1,1,1,1.660053292000157
45,ahs22,2020/12/05 13:57:57,right,en,NA,"font, bear, bus, dollar",6,10-3=7,1,1,1,1.6391102859997773
46,ahs22,2020/12/05 13:57:57,right,en,NA,"font, bear, bus, dollar, payment",6,10-3=8,0,0,1,1.1243188139997073
47,ahs22,2020/12/05 13:57:57,right,en,NA,"font, bear, bus, dollar, payment, beef",6,11-1=10,1,1,1,1.6330418289999216
48,ahs22,2020/12/05 13:57:57,right,en,NA,sun,6,2+2=4,1,1,1,3.3627230809997855
49,ahs22,2020/12/05 13:57:57,right,en,NA,"sun, toy",6,2+7=6,0,0,1,2.6220464939997328
50,ahs22,2020/12/05 13:57:57,right,en,NA,"sun, toy, dog",6,2+7=9,1,1,1,4.308821794000323
51,ahs22,2020/12/05 13:57:57,right,en,NA,"sun, toy, dog, table",6,2+8=10,1,1,1,0.722562763001406
52,ahs22,2020/12/05 13:57:57,right,en,NA,"sun, toy, dog, table, eye",6,20-5=15,1,1,1,1.3642843099987658
53,ahs22,2020/12/05 13:57:57,right,en,NA,"sun, toy, dog, table, eye, bowling",6,3-1=2,1,1,1,2.6008032749996346
