,subject_id,date,handedness,lang,trial_num,sequence,seq_length,formula,correct_resp,subj_form_resp,accuracy_formula,rt_formula
0,ahs07,2020/12/03 14:02:34,right,es,NA,haircut,3,1+1=0,0,0,1,1.2187247669999124
1,ahs07,2020/12/03 14:02:34,right,es,NA,"haircut, time",3,1+4=5,1,1,1,1.702545156999804
2,ahs07,2020/12/03 14:02:34,right,es,NA,"haircut, time, mug",3,1+4=6,0,0,1,1.7848376410001947
3,ahs07,2020/12/03 14:02:34,right,es,NA,lizard,3,1+5=6,1,1,1,1.6391483360002894
4,ahs07,2020/12/03 14:02:34,right,es,NA,"lizard, dad",3,10-2=8,1,1,1,1.1710863789994619
5,ahs07,2020/12/03 14:02:34,right,es,NA,"lizard, dad, glider",3,10-3=7,1,1,1,1.102446384000359
6,ahs07,2020/12/03 14:02:34,right,es,NA,couch,3,10-3=8,0,0,1,1.0767251699999179
7,ahs07,2020/12/03 14:02:34,right,es,NA,"couch, trench",3,11-1=10,1,1,1,1.224533304999568
8,ahs07,2020/12/03 14:02:34,right,es,NA,"couch, trench, atom",3,2+2=4,1,1,1,1.1522778130001825
9,ahs07,2020/12/03 14:02:34,right,es,NA,spider,4,2+7=6,0,0,1,1.1564303840004868
10,ahs07,2020/12/03 14:02:34,right,es,NA,"spider, mud",4,2+7=9,1,1,1,1.7050839480007198
11,ahs07,2020/12/03 14:02:34,right,es,NA,"spider, mud, head",4,2+8=10,1,1,1,0.9049663880005028
12,ahs07,2020/12/03 14:02:34,right,es,NA,"spider, mud, head, throne",4,20-5=15,1,1,1,0.9280070539998633
13,ahs07,2020/12/03 14:02:34,right,es,NA,queen,4,3-1=2,1,1,1,0.9757998409995707
14,ahs07,2020/12/03 14:02:34,right,es,NA,"queen, flower",4,3+2=5,1,1,1,2.2065850039998622
15,ahs07,2020/12/03 14:02:34,right,es,NA,"queen, flower, barber",4,3+6=8,0,0,1,1.2822665559997404
16,ahs07,2020/12/03 14:02:34,right,es,NA,"queen, flower, barber, school",4,3+7=10,1,1,1,0.6878307839997433
17,ahs07,2020/12/03 14:02:34,right,es,NA,book,4,4-3=2,0,0,1,0.9587752249999539
18,ahs07,2020/12/03 14:02:34,right,es,NA,"book, beans",4,4+5=9,1,1,1,1.6381661490004262
19,ahs07,2020/12/03 14:02:34,right,es,NA,"book, beans, chair",4,4+6=10,1,1,1,1.7187459010001476
20,ahs07,2020/12/03 14:02:34,right,es,NA,"book, beans, chair, measure",4,4+7=11,1,1,1,1.6727794239996001
21,ahs07,2020/12/03 14:02:34,right,es,NA,shovel,5,5-1=4,1,1,1,1.8262541969997983
22,ahs07,2020/12/03 14:02:34,right,es,NA,"shovel, port",5,5-2=3,1,1,1,1.1228836190002767
23,ahs07,2020/12/03 14:02:34,right,es,NA,"shovel, port, army",5,5+3=8,1,1,1,1.4866946570000437
24,ahs07,2020/12/03 14:02:34,right,es,NA,"shovel, port, army, drill",5,5+3=9,0,1,0,2.5375517180000315
25,ahs07,2020/12/03 14:02:34,right,es,NA,"shovel, port, army, drill, stone",5,5+8=15,0,0,1,2.8765208569993774
26,ahs07,2020/12/03 14:02:34,right,es,NA,puma,5,6-4=2,1,1,1,0.8129191340003672
27,ahs07,2020/12/03 14:02:34,right,es,NA,"puma, lamp",5,6-4=3,0,0,1,1.2494359699994675
28,ahs07,2020/12/03 14:02:34,right,es,NA,"puma, lamp, farm",5,6+3=11,0,0,1,2.3648612189999767
29,ahs07,2020/12/03 14:02:34,right,es,NA,"puma, lamp, farm, radar",5,6+3=8,0,0,1,0.8641291309995722
30,ahs07,2020/12/03 14:02:34,right,es,NA,"puma, lamp, farm, radar, jury",5,7-5=4,0,0,1,2.825078185000166
31,ahs07,2020/12/03 14:02:34,right,es,NA,phone,5,7+2=10,0,0,1,1.0461514170001465
32,ahs07,2020/12/03 14:02:34,right,es,NA,"phone, stocking",5,7+3=10,1,1,1,0.8034978240002602
33,ahs07,2020/12/03 14:02:34,right,es,NA,"phone, stocking, toe",5,8-4=4,1,1,1,1.188840847999927
34,ahs07,2020/12/03 14:02:34,right,es,NA,"phone, stocking, toe, pea",5,8-5=2,0,0,1,1.0166984679999587
35,ahs07,2020/12/03 14:02:34,right,es,NA,"phone, stocking, toe, pea, pencil",5,8-6=2,1,1,1,2.57432432800033
36,ahs07,2020/12/03 14:02:34,right,es,NA,soldier,6,8+4=10,0,0,1,2.1041875090004396
37,ahs07,2020/12/03 14:02:34,right,es,NA,"soldier, cup",6,9-2=7,1,1,1,1.1129767869997522
38,ahs07,2020/12/03 14:02:34,right,es,NA,"soldier, cup, rain",6,9-2=8,0,0,1,3.213449171999855
39,ahs07,2020/12/03 14:02:34,right,es,NA,"soldier, cup, rain, food",6,9-3=8,0,0,1,1.9876696259998425
40,ahs07,2020/12/03 14:02:34,right,es,NA,"soldier, cup, rain, food, pilot",6,1+1=0,0,0,1,1.27532007300033
41,ahs07,2020/12/03 14:02:34,right,es,NA,"soldier, cup, rain, food, pilot, pond",6,1+4=5,1,1,1,0.9757210099996882
42,ahs07,2020/12/03 14:02:34,right,es,NA,font,6,1+4=6,0,0,1,1.8333494509997763
43,ahs07,2020/12/03 14:02:34,right,es,NA,"font, bear",6,1+5=6,1,1,1,1.248464848000367
44,ahs07,2020/12/03 14:02:34,right,es,NA,"font, bear, bus",6,10-2=8,1,1,1,1.8006891909999467
45,ahs07,2020/12/03 14:02:34,right,es,NA,"font, bear, bus, dollar",6,10-3=7,1,1,1,2.6987788030000956
46,ahs07,2020/12/03 14:02:34,right,es,NA,"font, bear, bus, dollar, payment",6,10-3=8,0,0,1,0.8461803790005433
47,ahs07,2020/12/03 14:02:34,right,es,NA,"font, bear, bus, dollar, payment, beef",6,11-1=10,1,1,1,1.1194935580006131
48,ahs07,2020/12/03 14:02:34,right,es,NA,sun,6,2+2=4,1,1,1,2.276582411000163
49,ahs07,2020/12/03 14:02:34,right,es,NA,"sun, toy",6,2+7=6,0,0,1,0.9814395729999887
50,ahs07,2020/12/03 14:02:34,right,es,NA,"sun, toy, dog",6,2+7=9,1,1,1,1.084430287000032
51,ahs07,2020/12/03 14:02:34,right,es,NA,"sun, toy, dog, table",6,2+8=10,1,1,1,1.0354553159995703
52,ahs07,2020/12/03 14:02:34,right,es,NA,"sun, toy, dog, table, eye",6,20-5=15,1,1,1,1.445990780000102
53,ahs07,2020/12/03 14:02:34,right,es,NA,"sun, toy, dog, table, eye, bowling",6,3-1=2,1,1,1,0.9474796380000043
