,subject_id,date,handedness,lang,trial_num,sequence,seq_length,formula,correct_resp,subj_form_resp,accuracy_formula,rt_formula
0,ahs15,2020/11/21 18:02:11,right,es,NA,haircut,3,1+1=0,0,0,1,4.15909306499816
1,ahs15,2020/11/21 18:02:11,right,es,NA,"haircut, time",3,1+4=5,1,1,1,4.965488020003249
2,ahs15,2020/11/21 18:02:11,right,es,NA,"haircut, time, mug",3,1+4=6,0,0,1,5.157851700998435
3,ahs15,2020/11/21 18:02:11,right,es,NA,lizard,3,1+5=6,1,1,1,5.4832860919996165
4,ahs15,2020/11/21 18:02:11,right,es,NA,"lizard, dad",3,10-2=8,1,1,1,4.10724323100294
5,ahs15,2020/11/21 18:02:11,right,es,NA,"lizard, dad, glider",3,10-3=7,1,0,0,6.377355936994718
6,ahs15,2020/11/21 18:02:11,right,es,NA,couch,3,10-3=8,0,0,1,4.476088174000324
7,ahs15,2020/11/21 18:02:11,right,es,NA,"couch, trench",3,11-1=10,1,1,1,2.9207302180002443
8,ahs15,2020/11/21 18:02:11,right,es,NA,"couch, trench, atom",3,2+2=4,1,1,1,3.0195418189978227
9,ahs15,2020/11/21 18:02:11,right,es,NA,spider,4,2+7=6,0,0,1,3.7574684639985207
10,ahs15,2020/11/21 18:02:11,right,es,NA,"spider, mud",4,2+7=9,1,1,1,2.711992292002833
11,ahs15,2020/11/21 18:02:11,right,es,NA,"spider, mud, head",4,2+8=10,1,1,1,6.494237318001979
12,ahs15,2020/11/21 18:02:11,right,es,NA,"spider, mud, head, throne",4,20-5=15,1,1,1,1.5744627980020596
13,ahs15,2020/11/21 18:02:11,right,es,NA,queen,4,3-1=2,1,0,0,4.046513438996044
14,ahs15,2020/11/21 18:02:11,right,es,NA,"queen, flower",4,3+2=5,1,1,1,6.746889756999735
15,ahs15,2020/11/21 18:02:11,right,es,NA,"queen, flower, barber",4,3+6=8,0,0,1,9.520044756005518
16,ahs15,2020/11/21 18:02:11,right,es,NA,"queen, flower, barber, school",4,3+7=10,1,0,0,5.9971386899997015
17,ahs15,2020/11/21 18:02:11,right,es,NA,book,4,4-3=2,0,0,1,8.062020843004575
18,ahs15,2020/11/21 18:02:11,right,es,NA,"book, beans",4,4+5=9,1,1,1,6.6754471419990296
19,ahs15,2020/11/21 18:02:11,right,es,NA,"book, beans, chair",4,4+6=10,1,1,1,3.9622405439949944
20,ahs15,2020/11/21 18:02:11,right,es,NA,"book, beans, chair, measure",4,4+7=11,1,1,1,4.123460399998294
21,ahs15,2020/11/21 18:02:11,right,es,NA,shovel,5,5-1=4,1,1,1,3.7747873319967766
22,ahs15,2020/11/21 18:02:11,right,es,NA,"shovel, port",5,5-2=3,1,1,1,3.569671069002652
23,ahs15,2020/11/21 18:02:11,right,es,NA,"shovel, port, army",5,5+3=8,1,1,1,2.0408177580029587
24,ahs15,2020/11/21 18:02:11,right,es,NA,"shovel, port, army, drill",5,5+3=9,0,1,0,2.035473625997838
25,ahs15,2020/11/21 18:02:11,right,es,NA,"shovel, port, army, drill, stone",5,5+8=15,0,0,1,4.957868706995214
26,ahs15,2020/11/21 18:02:11,right,es,NA,puma,5,6-4=2,1,1,1,9.574767737998627
27,ahs15,2020/11/21 18:02:11,right,es,NA,"puma, lamp",5,6-4=3,0,0,1,5.2620020670001395
28,ahs15,2020/11/21 18:02:11,right,es,NA,"puma, lamp, farm",5,6+3=11,0,0,1,2.6964661489982973
29,ahs15,2020/11/21 18:02:11,right,es,NA,"puma, lamp, farm, radar",5,6+3=8,0,0,1,4.804858239003806
30,ahs15,2020/11/21 18:02:11,right,es,NA,"puma, lamp, farm, radar, jury",5,7-5=4,0,0,1,1.943430322004133
31,ahs15,2020/11/21 18:02:11,right,es,NA,phone,5,7+2=10,0,0,1,8.77937305100204
32,ahs15,2020/11/21 18:02:11,right,es,NA,"phone, stocking",5,7+3=10,1,1,1,2.4180840750050265
33,ahs15,2020/11/21 18:02:11,right,es,NA,"phone, stocking, toe",5,8-4=4,1,1,1,1.242660704003356
34,ahs15,2020/11/21 18:02:11,right,es,NA,"phone, stocking, toe, pea",5,8-5=2,0,0,1,1.8225344700040296
35,ahs15,2020/11/21 18:02:11,right,es,NA,"phone, stocking, toe, pea, pencil",5,8-6=2,1,1,1,3.2992883839979186
36,ahs15,2020/11/21 18:02:11,right,es,NA,soldier,6,8+4=10,0,0,1,7.268541641999036
37,ahs15,2020/11/21 18:02:11,right,es,NA,"soldier, cup",6,9-2=7,1,1,1,4.5054575679969275
38,ahs15,2020/11/21 18:02:11,right,es,NA,"soldier, cup, rain",6,9-2=8,0,0,1,4.331588342000032
39,ahs15,2020/11/21 18:02:11,right,es,NA,"soldier, cup, rain, food",6,9-3=8,0,0,1,5.646421534998808
40,ahs15,2020/11/21 18:02:11,right,es,NA,"soldier, cup, rain, food, pilot",6,1+1=0,0,0,1,0.5408096090031904
41,ahs15,2020/11/21 18:02:11,right,es,NA,"soldier, cup, rain, food, pilot, pond",6,1+4=5,1,1,1,4.5109804140010965
42,ahs15,2020/11/21 18:02:11,right,es,NA,font,6,1+4=6,0,0,1,2.2356887179994374
43,ahs15,2020/11/21 18:02:11,right,es,NA,"font, bear",6,1+5=6,1,1,1,3.0493287299977965
44,ahs15,2020/11/21 18:02:11,right,es,NA,"font, bear, bus",6,10-2=8,1,1,1,1.7768525749997934
45,ahs15,2020/11/21 18:02:11,right,es,NA,"font, bear, bus, dollar",6,10-3=7,1,0,0,4.843779441995139
46,ahs15,2020/11/21 18:02:11,right,es,NA,"font, bear, bus, dollar, payment",6,10-3=8,0,0,1,3.0416505620014505
47,ahs15,2020/11/21 18:02:11,right,es,NA,"font, bear, bus, dollar, payment, beef",6,11-1=10,1,1,1,5.059200105002674
48,ahs15,2020/11/21 18:02:11,right,es,NA,sun,6,2+2=4,1,1,1,5.3615162420028355
49,ahs15,2020/11/21 18:02:11,right,es,NA,"sun, toy",6,2+7=6,0,0,1,8.285922822004068
50,ahs15,2020/11/21 18:02:11,right,es,NA,"sun, toy, dog",6,2+7=9,1,1,1,3.342614148998109
51,ahs15,2020/11/21 18:02:11,right,es,NA,"sun, toy, dog, table",6,2+8=10,1,1,1,5.058793265998247
52,ahs15,2020/11/21 18:02:11,right,es,NA,"sun, toy, dog, table, eye",6,20-5=15,1,1,1,2.950028352002846
53,ahs15,2020/11/21 18:02:11,right,es,NA,"sun, toy, dog, table, eye, bowling",6,3-1=2,1,0,0,4.67678987900581
