,subject_id,date,handedness,lang,trial_num,sequence,seq_length,formula,correct_resp,subj_form_resp,accuracy_formula,rt_formula
0,ahs14,2020/11/24 15:31:44,right,es,NA,haircut,3,1+1=0,0,0,1,1.6702307049999945
1,ahs14,2020/11/24 15:31:44,right,es,NA,"haircut, time",3,1+4=5,1,1,1,1.4725279499980388
2,ahs14,2020/11/24 15:31:44,right,es,NA,"haircut, time, mug",3,1+4=6,0,0,1,2.09186829799728
3,ahs14,2020/11/24 15:31:44,right,es,NA,lizard,3,1+5=6,1,1,1,2.6487248619960155
4,ahs14,2020/11/24 15:31:44,right,es,NA,"lizard, dad",3,10-2=8,1,1,1,1.4995564760029083
5,ahs14,2020/11/24 15:31:44,right,es,NA,"lizard, dad, glider",3,10-3=7,1,1,1,1.395426363000297
6,ahs14,2020/11/24 15:31:44,right,es,NA,couch,3,10-3=8,0,0,1,1.3296519599971361
7,ahs14,2020/11/24 15:31:44,right,es,NA,"couch, trench",3,11-1=10,1,1,1,1.4042453930014744
8,ahs14,2020/11/24 15:31:44,right,es,NA,"couch, trench, atom",3,2+2=4,1,1,1,1.5642117950046668
9,ahs14,2020/11/24 15:31:44,right,es,NA,spider,4,2+7=6,0,0,1,3.526255137010594
10,ahs14,2020/11/24 15:31:44,right,es,NA,"spider, mud",4,2+7=9,1,1,1,2.0828583880065707
11,ahs14,2020/11/24 15:31:44,right,es,NA,"spider, mud, head",4,2+8=10,1,1,1,1.988036809998448
12,ahs14,2020/11/24 15:31:44,right,es,NA,"spider, mud, head, throne",4,20-5=15,1,1,1,3.744343967002351
13,ahs14,2020/11/24 15:31:44,right,es,NA,queen,4,3-1=2,1,1,1,5.303568756004097
14,ahs14,2020/11/24 15:31:44,right,es,NA,"queen, flower",4,3+2=5,1,1,1,1.464813041005982
15,ahs14,2020/11/24 15:31:44,right,es,NA,"queen, flower, barber",4,3+6=8,0,1,0,2.145770030008862
16,ahs14,2020/11/24 15:31:44,right,es,NA,"queen, flower, barber, school",4,3+7=10,1,1,1,2.37265607099107
17,ahs14,2020/11/24 15:31:44,right,es,NA,book,4,4-3=2,0,0,1,3.0253119860135484
18,ahs14,2020/11/24 15:31:44,right,es,NA,"book, beans",4,4+5=9,1,1,1,2.8870684369903756
19,ahs14,2020/11/24 15:31:44,right,es,NA,"book, beans, chair",4,4+6=10,1,1,1,4.5656320359994425
20,ahs14,2020/11/24 15:31:44,right,es,NA,"book, beans, chair, measure",4,4+7=11,1,1,1,1.9911632730072597
21,ahs14,2020/11/24 15:31:44,right,es,NA,shovel,5,5-1=4,1,1,1,1.3262841930118157
22,ahs14,2020/11/24 15:31:44,right,es,NA,"shovel, port",5,5-2=3,1,1,1,1.625434205008787
23,ahs14,2020/11/24 15:31:44,right,es,NA,"shovel, port, army",5,5+3=8,1,1,1,2.448380789006478
24,ahs14,2020/11/24 15:31:44,right,es,NA,"shovel, port, army, drill",5,5+3=9,0,0,1,3.6518833190057194
25,ahs14,2020/11/24 15:31:44,right,es,NA,"shovel, port, army, drill, stone",5,5+8=15,0,0,1,4.299590091992286
26,ahs14,2020/11/24 15:31:44,right,es,NA,puma,5,6-4=2,1,1,1,1.0286953530012397
27,ahs14,2020/11/24 15:31:44,right,es,NA,"puma, lamp",5,6-4=3,0,0,1,2.8731988750078017
28,ahs14,2020/11/24 15:31:44,right,es,NA,"puma, lamp, farm",5,6+3=11,0,0,1,4.189628653010004
29,ahs14,2020/11/24 15:31:44,right,es,NA,"puma, lamp, farm, radar",5,6+3=8,0,0,1,1.1368360060005216
30,ahs14,2020/11/24 15:31:44,right,es,NA,"puma, lamp, farm, radar, jury",5,7-5=4,0,0,1,2.454157212996506
31,ahs14,2020/11/24 15:31:44,right,es,NA,phone,5,7+2=10,0,0,1,2.3704251169983763
32,ahs14,2020/11/24 15:31:44,right,es,NA,"phone, stocking",5,7+3=10,1,1,1,1.7367169339995598
33,ahs14,2020/11/24 15:31:44,right,es,NA,"phone, stocking, toe",5,8-4=4,1,1,1,1.4373544459958794
34,ahs14,2020/11/24 15:31:44,right,es,NA,"phone, stocking, toe, pea",5,8-5=2,0,0,1,3.430821393005317
35,ahs14,2020/11/24 15:31:44,right,es,NA,"phone, stocking, toe, pea, pencil",5,8-6=2,1,1,1,3.2668278210039716
36,ahs14,2020/11/24 15:31:44,right,es,NA,soldier,6,8+4=10,0,0,1,3.0263772809994407
37,ahs14,2020/11/24 15:31:44,right,es,NA,"soldier, cup",6,9-2=7,1,1,1,1.9118871899991063
38,ahs14,2020/11/24 15:31:44,right,es,NA,"soldier, cup, rain",6,9-2=8,0,0,1,2.2520913030020893
39,ahs14,2020/11/24 15:31:44,right,es,NA,"soldier, cup, rain, food",6,9-3=8,0,0,1,1.2825160740030697
40,ahs14,2020/11/24 15:31:44,right,es,NA,"soldier, cup, rain, food, pilot",6,1+1=0,0,0,1,1.3095336659898749
41,ahs14,2020/11/24 15:31:44,right,es,NA,"soldier, cup, rain, food, pilot, pond",6,1+4=5,1,1,1,1.457887146010762
42,ahs14,2020/11/24 15:31:44,right,es,NA,font,6,1+4=6,0,0,1,2.038055858996813
43,ahs14,2020/11/24 15:31:44,right,es,NA,"font, bear",6,1+5=6,1,1,1,3.332249517989112
44,ahs14,2020/11/24 15:31:44,right,es,NA,"font, bear, bus",6,10-2=8,1,1,1,1.144554688988137
45,ahs14,2020/11/24 15:31:44,right,es,NA,"font, bear, bus, dollar",6,10-3=7,1,1,1,1.2751390620105667
46,ahs14,2020/11/24 15:31:44,right,es,NA,"font, bear, bus, dollar, payment",6,10-3=8,0,0,1,2.015900566999335
47,ahs14,2020/11/24 15:31:44,right,es,NA,"font, bear, bus, dollar, payment, beef",6,11-1=10,1,1,1,2.1628275709954323
48,ahs14,2020/11/24 15:31:44,right,es,NA,sun,6,2+2=4,1,1,1,1.1965043640084332
49,ahs14,2020/11/24 15:31:44,right,es,NA,"sun, toy",6,2+7=6,0,0,1,2.184440828001243
50,ahs14,2020/11/24 15:31:44,right,es,NA,"sun, toy, dog",6,2+7=9,1,1,1,1.247704875000636
51,ahs14,2020/11/24 15:31:44,right,es,NA,"sun, toy, dog, table",6,2+8=10,1,1,1,1.1839122390083503
52,ahs14,2020/11/24 15:31:44,right,es,NA,"sun, toy, dog, table, eye",6,20-5=15,1,1,1,1.3547797430073842
53,ahs14,2020/11/24 15:31:44,right,es,NA,"sun, toy, dog, table, eye, bowling",6,3-1=2,1,1,1,3.7954141160007566
