,subject_id,date,handedness,lang,trial_num,sequence,seq_length,formula,correct_resp,subj_form_resp,accuracy_formula,rt_formula
0,ae01,2020/01/22 12:14:13,right,en,NA,haircut,3,1+1=0,0,0,1,0.9723013759999048
1,ae01,2020/01/22 12:14:13,right,en,NA,"haircut, time",3,1+4=5,1,1,1,0.6729108280001128
2,ae01,2020/01/22 12:14:13,right,en,NA,"haircut, time, mug",3,1+4=6,0,0,1,0.5569404580000992
3,ae01,2020/01/22 12:14:13,right,en,NA,lizard,3,1+5=6,1,1,1,0.6000829629997497
4,ae01,2020/01/22 12:14:13,right,en,NA,"lizard, dad",3,10-2=8,1,1,1,0.6629149949999373
5,ae01,2020/01/22 12:14:13,right,en,NA,"lizard, dad, glider",3,10-3=7,1,1,1,1.2098235809999096
6,ae01,2020/01/22 12:14:13,right,en,NA,couch,3,10-3=8,0,0,1,0.8625839649998852
7,ae01,2020/01/22 12:14:13,right,en,NA,"couch, trench",3,11-1=10,1,1,1,0.7999321830002373
8,ae01,2020/01/22 12:14:13,right,en,NA,"couch, trench, atom",3,2+2=4,1,1,1,2.349616986000001
9,ae01,2020/01/22 12:14:13,right,en,NA,spider,4,2+7=6,0,0,1,0.5320075950003229
10,ae01,2020/01/22 12:14:13,right,en,NA,"spider, mud",4,2+7=9,1,1,1,0.45453764800004137
11,ae01,2020/01/22 12:14:13,right,en,NA,"spider, mud, head",4,2+8=10,1,1,1,0.9118443460001799
12,ae01,2020/01/22 12:14:13,right,en,NA,"spider, mud, head, throne",4,20-5=15,1,1,1,0.5230319910001526
13,ae01,2020/01/22 12:14:13,right,en,NA,queen,4,3-1=2,1,1,1,0.6361925530000008
14,ae01,2020/01/22 12:14:13,right,en,NA,"queen, flower",4,3+2=5,1,1,1,0.8775740440000845
15,ae01,2020/01/22 12:14:13,right,en,NA,"queen, flower, barber",4,3+6=8,0,0,1,0.8527889740003047
16,ae01,2020/01/22 12:14:13,right,en,NA,"queen, flower, barber, school",4,3+7=10,1,1,1,0.48982965000004697
17,ae01,2020/01/22 12:14:13,right,en,NA,book,4,4-3=2,0,0,1,0.6228128939997077
18,ae01,2020/01/22 12:14:13,right,en,NA,"book, beans",4,4+5=9,1,1,1,1.1375509260001309
19,ae01,2020/01/22 12:14:13,right,en,NA,"book, beans, chair",4,4+6=10,1,1,1,0.9720606979999502
20,ae01,2020/01/22 12:14:13,right,en,NA,"book, beans, chair, measure",4,4+7=11,1,1,1,0.3965093350002462
21,ae01,2020/01/22 12:14:13,right,en,NA,shovel,5,5-1=4,1,1,1,0.7543199530000493
22,ae01,2020/01/22 12:14:13,right,en,NA,"shovel, port",5,5-2=3,1,1,1,1.6008322920001774
23,ae01,2020/01/22 12:14:13,right,en,NA,"shovel, port, army",5,5+3=8,1,1,1,0.7012032729999191
24,ae01,2020/01/22 12:14:13,right,en,NA,"shovel, port, army, drill",5,5+3=9,0,0,1,0.4561317580000832
25,ae01,2020/01/22 12:14:13,right,en,NA,"shovel, port, army, drill, stone",5,5+8=15,0,0,1,0.23227928400001474
26,ae01,2020/01/22 12:14:13,right,en,NA,puma,5,6-4=2,1,1,1,0.7467235270000856
27,ae01,2020/01/22 12:14:13,right,en,NA,"puma, lamp",5,6-4=3,0,0,1,0.6970591130002504
28,ae01,2020/01/22 12:14:13,right,en,NA,"puma, lamp, farm",5,6+3=11,0,0,1,0.732605876999969
29,ae01,2020/01/22 12:14:13,right,en,NA,"puma, lamp, farm, radar",5,6+3=8,0,0,1,0.6510908850000305
30,ae01,2020/01/22 12:14:13,right,en,NA,"puma, lamp, farm, radar, jury",5,7-5=4,0,0,1,0.30141837500013935
31,ae01,2020/01/22 12:14:13,right,en,NA,phone,5,7+2=10,0,0,1,0.9823076460002085
32,ae01,2020/01/22 12:14:13,right,en,NA,"phone, stocking",5,7+3=10,1,1,1,0.4647604669999055
33,ae01,2020/01/22 12:14:13,right,en,NA,"phone, stocking, toe",5,8-4=4,1,1,1,1.5400727759997608
34,ae01,2020/01/22 12:14:13,right,en,NA,"phone, stocking, toe, pea",5,8-5=2,0,0,1,0.5875562649998756
35,ae01,2020/01/22 12:14:13,right,en,NA,"phone, stocking, toe, pea, pencil",5,8-6=2,1,1,1,0.732847381999818
36,ae01,2020/01/22 12:14:13,right,en,NA,soldier,6,8+4=10,0,0,1,0.6905773420003243
37,ae01,2020/01/22 12:14:13,right,en,NA,"soldier, cup",6,9-2=7,1,1,1,0.7261051240002416
38,ae01,2020/01/22 12:14:13,right,en,NA,"soldier, cup, rain",6,9-2=8,0,0,1,1.007269940000242
39,ae01,2020/01/22 12:14:13,right,en,NA,"soldier, cup, rain, food",6,9-3=8,0,0,1,2.511942626000291
40,ae01,2020/01/22 12:14:13,right,en,NA,"soldier, cup, rain, food, pilot",6,1+1=0,0,0,1,1.566957721000108
41,ae01,2020/01/22 12:14:13,right,en,NA,"soldier, cup, rain, food, pilot, pond",6,1+4=5,1,1,1,1.4785025559999667
42,ae01,2020/01/22 12:14:13,right,en,NA,font,6,1+4=6,0,0,1,0.5119179139996959
43,ae01,2020/01/22 12:14:13,right,en,NA,"font, bear",6,1+5=6,1,1,1,1.3030480699999316
44,ae01,2020/01/22 12:14:13,right,en,NA,"font, bear, bus",6,10-2=8,1,1,1,0.6406824290002078
45,ae01,2020/01/22 12:14:13,right,en,NA,"font, bear, bus, dollar",6,10-3=7,1,1,1,0.6191667389998656
46,ae01,2020/01/22 12:14:13,right,en,NA,"font, bear, bus, dollar, payment",6,10-3=8,0,0,1,0.5552953750002416
47,ae01,2020/01/22 12:14:13,right,en,NA,"font, bear, bus, dollar, payment, beef",6,11-1=10,1,1,1,0.7235849339999731
48,ae01,2020/01/22 12:14:13,right,en,NA,sun,6,2+2=4,1,1,1,0.7752361130001191
49,ae01,2020/01/22 12:14:13,right,en,NA,"sun, toy",6,2+7=6,0,0,1,1.0150710099997013
50,ae01,2020/01/22 12:14:13,right,en,NA,"sun, toy, dog",6,2+7=9,1,1,1,0.8244275820002258
51,ae01,2020/01/22 12:14:13,right,en,NA,"sun, toy, dog, table",6,2+8=10,1,1,1,0.9477018200000202
52,ae01,2020/01/22 12:14:13,right,en,NA,"sun, toy, dog, table, eye",6,20-5=15,1,1,1,0.4475914829999965
53,ae01,2020/01/22 12:14:13,right,en,NA,"sun, toy, dog, table, eye, bowling",6,3-1=2,1,1,1,0.8903935690000253
