,subject_id,date,handedness,lang,trial_num,sequence,seq_length,formula,correct_resp,subj_form_resp,accuracy_formula,rt_formula
0,ae15,2020/01/29 19:02:25,right,en,NA,haircut,3,1+1=0,0,0,1,0.9972554050036706
1,ae15,2020/01/29 19:02:25,right,en,NA,"haircut, time",3,1+4=5,1,1,1,0.9244335440016584
2,ae15,2020/01/29 19:02:25,right,en,NA,"haircut, time, mug",3,1+4=6,0,0,1,1.3969066649879096
3,ae15,2020/01/29 19:02:25,right,en,NA,lizard,3,1+5=6,1,1,1,0.5903540840081405
4,ae15,2020/01/29 19:02:25,right,en,NA,"lizard, dad",3,10-2=8,1,1,1,0.7431579240073916
5,ae15,2020/01/29 19:02:25,right,en,NA,"lizard, dad, glider",3,10-3=7,1,1,1,0.6666023249999853
6,ae15,2020/01/29 19:02:25,right,en,NA,couch,3,10-3=8,0,0,1,0.7439110850100406
7,ae15,2020/01/29 19:02:25,right,en,NA,"couch, trench",3,11-1=10,1,1,1,0.9407189409976127
8,ae15,2020/01/29 19:02:25,right,en,NA,"couch, trench, atom",3,2+2=4,1,1,1,0.8474913440004457
9,ae15,2020/01/29 19:02:25,right,en,NA,spider,4,2+7=6,0,0,1,1.0854825490096118
10,ae15,2020/01/29 19:02:25,right,en,NA,"spider, mud",4,2+7=9,1,1,1,1.4676545090042055
11,ae15,2020/01/29 19:02:25,right,en,NA,"spider, mud, head",4,2+8=10,1,1,1,1.715857438990497
12,ae15,2020/01/29 19:02:25,right,en,NA,"spider, mud, head, throne",4,20-5=15,1,0,0,2.3237709410022944
13,ae15,2020/01/29 19:02:25,right,en,NA,queen,4,3-1=2,1,1,1,0.8358227169956081
14,ae15,2020/01/29 19:02:25,right,en,NA,"queen, flower",4,3+2=5,1,1,1,0.8530688489991007
15,ae15,2020/01/29 19:02:25,right,en,NA,"queen, flower, barber",4,3+6=8,0,0,1,0.7003626759978943
16,ae15,2020/01/29 19:02:25,right,en,NA,"queen, flower, barber, school",4,3+7=10,1,1,1,1.284740243005217
17,ae15,2020/01/29 19:02:25,right,en,NA,book,4,4-3=2,0,0,1,0.25590726399968844
18,ae15,2020/01/29 19:02:25,right,en,NA,"book, beans",4,4+5=9,1,1,1,1.4111738330102526
19,ae15,2020/01/29 19:02:25,right,en,NA,"book, beans, chair",4,4+6=10,1,1,1,1.236920070994529
20,ae15,2020/01/29 19:02:25,right,en,NA,"book, beans, chair, measure",4,4+7=11,1,1,1,1.543043565005064
21,ae15,2020/01/29 19:02:25,right,en,NA,shovel,5,5-1=4,1,1,1,1.1725783599977149
22,ae15,2020/01/29 19:02:25,right,en,NA,"shovel, port",5,5-2=3,1,1,1,1.8683676040091086
23,ae15,2020/01/29 19:02:25,right,en,NA,"shovel, port, army",5,5+3=8,1,1,1,1.0688694279961055
24,ae15,2020/01/29 19:02:25,right,en,NA,"shovel, port, army, drill",5,5+3=9,0,0,1,0.7877622700034408
25,ae15,2020/01/29 19:02:25,right,en,NA,"shovel, port, army, drill, stone",5,5+8=15,0,0,1,0.7496263509965502
26,ae15,2020/01/29 19:02:25,right,en,NA,puma,5,6-4=2,1,1,1,0.6639541220065439
27,ae15,2020/01/29 19:02:25,right,en,NA,"puma, lamp",5,6-4=3,0,0,1,1.0997056339983828
28,ae15,2020/01/29 19:02:25,right,en,NA,"puma, lamp, farm",5,6+3=11,0,0,1,0.9835456520086154
29,ae15,2020/01/29 19:02:25,right,en,NA,"puma, lamp, farm, radar",5,6+3=8,0,0,1,1.0176299339946127
30,ae15,2020/01/29 19:02:25,right,en,NA,"puma, lamp, farm, radar, jury",5,7-5=4,0,0,1,1.522178111001267
31,ae15,2020/01/29 19:02:25,right,en,NA,phone,5,7+2=10,0,0,1,1.684628489005263
32,ae15,2020/01/29 19:02:25,right,en,NA,"phone, stocking",5,7+3=10,1,1,1,0.4882548330060672
33,ae15,2020/01/29 19:02:25,right,en,NA,"phone, stocking, toe",5,8-4=4,1,1,1,1.1878145549999317
34,ae15,2020/01/29 19:02:25,right,en,NA,"phone, stocking, toe, pea",5,8-5=2,0,0,1,1.372837058006553
35,ae15,2020/01/29 19:02:25,right,en,NA,"phone, stocking, toe, pea, pencil",5,8-6=2,1,1,1,1.5441292169998633
36,ae15,2020/01/29 19:02:25,right,en,NA,soldier,6,8+4=10,0,1,0,1.967495188000612
37,ae15,2020/01/29 19:02:25,right,en,NA,"soldier, cup",6,9-2=7,1,1,1,2.0346024339960422
38,ae15,2020/01/29 19:02:25,right,en,NA,"soldier, cup, rain",6,9-2=8,0,0,1,1.459080772998277
39,ae15,2020/01/29 19:02:25,right,en,NA,"soldier, cup, rain, food",6,9-3=8,0,0,1,1.4986041019874392
40,ae15,2020/01/29 19:02:25,right,en,NA,"soldier, cup, rain, food, pilot",6,1+1=0,0,0,1,0.6479449350008508
41,ae15,2020/01/29 19:02:25,right,en,NA,"soldier, cup, rain, food, pilot, pond",6,1+4=5,1,0,0,2.5076681960053975
42,ae15,2020/01/29 19:02:25,right,en,NA,font,6,1+4=6,0,0,1,1.6834549789928133
43,ae15,2020/01/29 19:02:25,right,en,NA,"font, bear",6,1+5=6,1,1,1,1.1394621779909357
44,ae15,2020/01/29 19:02:25,right,en,NA,"font, bear, bus",6,10-2=8,1,1,1,0.7402004410105292
45,ae15,2020/01/29 19:02:25,right,en,NA,"font, bear, bus, dollar",6,10-3=7,1,1,1,0.7113966610049829
46,ae15,2020/01/29 19:02:25,right,en,NA,"font, bear, bus, dollar, payment",6,10-3=8,0,0,1,1.012203016987769
47,ae15,2020/01/29 19:02:25,right,en,NA,"font, bear, bus, dollar, payment, beef",6,11-1=10,1,1,1,2.849979766004253
48,ae15,2020/01/29 19:02:25,right,en,NA,sun,6,2+2=4,1,1,1,0.858637721001287
49,ae15,2020/01/29 19:02:25,right,en,NA,"sun, toy",6,2+7=6,0,0,1,0.6831099260016344
50,ae15,2020/01/29 19:02:25,right,en,NA,"sun, toy, dog",6,2+7=9,1,1,1,1.4079597320087487
51,ae15,2020/01/29 19:02:25,right,en,NA,"sun, toy, dog, table",6,2+8=10,1,1,1,0.5816521639935672
52,ae15,2020/01/29 19:02:25,right,en,NA,"sun, toy, dog, table, eye",6,20-5=15,1,1,1,1.3314859910024097
53,ae15,2020/01/29 19:02:25,right,en,NA,"sun, toy, dog, table, eye, bowling",6,3-1=2,1,1,1,2.6769596390076913
