,subject_id,date,handedness,lang,trial_num,sequence,seq_length,formula,correct_resp,subj_form_resp,accuracy_formula,rt_formula
0,ae25,2020/07/11 11:51:05,right,en,NA,haircut,3,1+1=0,0,0,1,1.0620700900035445
1,ae25,2020/07/11 11:51:05,right,en,NA,"haircut, time",3,1+4=5,1,1,1,0.7706539979990339
2,ae25,2020/07/11 11:51:05,right,en,NA,"haircut, time, mug",3,1+4=6,0,0,1,1.4532315070027835
3,ae25,2020/07/11 11:51:05,right,en,NA,lizard,3,1+5=6,1,1,1,0.7684056569996756
4,ae25,2020/07/11 11:51:05,right,en,NA,"lizard, dad",3,10-2=8,1,1,1,0.7903573039948242
5,ae25,2020/07/11 11:51:05,right,en,NA,"lizard, dad, glider",3,10-3=7,1,1,1,1.4483816049978486
6,ae25,2020/07/11 11:51:05,right,en,NA,couch,3,10-3=8,0,0,1,0.6683046109974384
7,ae25,2020/07/11 11:51:05,right,en,NA,"couch, trench",3,11-1=10,1,1,1,0.3954643789984402
8,ae25,2020/07/11 11:51:05,right,en,NA,"couch, trench, atom",3,2+2=4,1,1,1,1.375401603996579
9,ae25,2020/07/11 11:51:05,right,en,NA,spider,4,2+7=6,0,0,1,0.6610686479980359
10,ae25,2020/07/11 11:51:05,right,en,NA,"spider, mud",4,2+7=9,1,1,1,1.4971443089962122
11,ae25,2020/07/11 11:51:05,right,en,NA,"spider, mud, head",4,2+8=10,1,1,1,0.44308570999419317
12,ae25,2020/07/11 11:51:05,right,en,NA,"spider, mud, head, throne",4,20-5=15,1,1,1,0.5940495289978571
13,ae25,2020/07/11 11:51:05,right,en,NA,queen,4,3-1=2,1,1,1,0.6645081160022528
14,ae25,2020/07/11 11:51:05,right,en,NA,"queen, flower",4,3+2=5,1,1,1,0.11388438400172163
15,ae25,2020/07/11 11:51:05,right,en,NA,"queen, flower, barber",4,3+6=8,0,0,1,0.6071679189990391
16,ae25,2020/07/11 11:51:05,right,en,NA,"queen, flower, barber, school",4,3+7=10,1,1,1,0.5132830770016881
17,ae25,2020/07/11 11:51:05,right,en,NA,book,4,4-3=2,0,0,1,1.4242395440014661
18,ae25,2020/07/11 11:51:05,right,en,NA,"book, beans",4,4+5=9,1,1,1,1.2199043469954631
19,ae25,2020/07/11 11:51:05,right,en,NA,"book, beans, chair",4,4+6=10,1,1,1,1.2689337679985329
20,ae25,2020/07/11 11:51:05,right,en,NA,"book, beans, chair, measure",4,4+7=11,1,1,1,3.8020465509980568
21,ae25,2020/07/11 11:51:05,right,en,NA,shovel,5,5-1=4,1,1,1,0.664604566001799
22,ae25,2020/07/11 11:51:05,right,en,NA,"shovel, port",5,5-2=3,1,1,1,1.384189624004648
23,ae25,2020/07/11 11:51:05,right,en,NA,"shovel, port, army",5,5+3=8,1,1,1,0.317106046997651
24,ae25,2020/07/11 11:51:05,right,en,NA,"shovel, port, army, drill",5,5+3=9,0,0,1,0.3345789369996055
25,ae25,2020/07/11 11:51:05,right,en,NA,"shovel, port, army, drill, stone",5,5+8=15,0,0,1,2.255803690000903
26,ae25,2020/07/11 11:51:05,right,en,NA,puma,5,6-4=2,1,1,1,0.3665576779967523
27,ae25,2020/07/11 11:51:05,right,en,NA,"puma, lamp",5,6-4=3,0,0,1,0.42192355100269197
28,ae25,2020/07/11 11:51:05,right,en,NA,"puma, lamp, farm",5,6+3=11,0,0,1,1.0561049370007822
29,ae25,2020/07/11 11:51:05,right,en,NA,"puma, lamp, farm, radar",5,6+3=8,0,0,1,1.073851275999914
30,ae25,2020/07/11 11:51:05,right,en,NA,"puma, lamp, farm, radar, jury",5,7-5=4,0,0,1,0.4124173790041823
31,ae25,2020/07/11 11:51:05,right,en,NA,phone,5,7+2=10,0,1,0,0.9898774410030455
32,ae25,2020/07/11 11:51:05,right,en,NA,"phone, stocking",5,7+3=10,1,1,1,1.5031885119969957
33,ae25,2020/07/11 11:51:05,right,en,NA,"phone, stocking, toe",5,8-4=4,1,1,1,2.7058903659999487
34,ae25,2020/07/11 11:51:05,right,en,NA,"phone, stocking, toe, pea",5,8-5=2,0,0,1,3.7031334429993876
35,ae25,2020/07/11 11:51:05,right,en,NA,"phone, stocking, toe, pea, pencil",5,8-6=2,1,1,1,2.000459132999822
36,ae25,2020/07/11 11:51:05,right,en,NA,soldier,6,8+4=10,0,0,1,2.3973735500039766
37,ae25,2020/07/11 11:51:05,right,en,NA,"soldier, cup",6,9-2=7,1,1,1,1.753624769000453
38,ae25,2020/07/11 11:51:05,right,en,NA,"soldier, cup, rain",6,9-2=8,0,0,1,0.7695691409971914
39,ae25,2020/07/11 11:51:05,right,en,NA,"soldier, cup, rain, food",6,9-3=8,0,0,1,1.050481045000197
40,ae25,2020/07/11 11:51:05,right,en,NA,"soldier, cup, rain, food, pilot",6,1+1=0,0,0,1,0.7676756139990175
41,ae25,2020/07/11 11:51:05,right,en,NA,"soldier, cup, rain, food, pilot, pond",6,1+4=5,1,1,1,1.712429430001066
42,ae25,2020/07/11 11:51:05,right,en,NA,font,6,1+4=6,0,0,1,2.1912688829979743
43,ae25,2020/07/11 11:51:05,right,en,NA,"font, bear",6,1+5=6,1,1,1,3.183636066998588
44,ae25,2020/07/11 11:51:05,right,en,NA,"font, bear, bus",6,10-2=8,1,1,1,0.515385172002425
45,ae25,2020/07/11 11:51:05,right,en,NA,"font, bear, bus, dollar",6,10-3=7,1,1,1,1.7893890720006311
46,ae25,2020/07/11 11:51:05,right,en,NA,"font, bear, bus, dollar, payment",6,10-3=8,0,0,1,2.052436088997638
47,ae25,2020/07/11 11:51:05,right,en,NA,"font, bear, bus, dollar, payment, beef",6,11-1=10,1,1,1,0.38257114100269973
48,ae25,2020/07/11 11:51:05,right,en,NA,sun,6,2+2=4,1,1,1,1.2026261690043611
49,ae25,2020/07/11 11:51:05,right,en,NA,"sun, toy",6,2+7=6,0,0,1,0.7234532799993758
50,ae25,2020/07/11 11:51:05,right,en,NA,"sun, toy, dog",6,2+7=9,1,1,1,2.5620420729974285
51,ae25,2020/07/11 11:51:05,right,en,NA,"sun, toy, dog, table",6,2+8=10,1,1,1,1.7335515719969408
52,ae25,2020/07/11 11:51:05,right,en,NA,"sun, toy, dog, table, eye",6,20-5=15,1,1,1,0.9034868599992478
53,ae25,2020/07/11 11:51:05,right,en,NA,"sun, toy, dog, table, eye, bowling",6,3-1=2,1,1,1,4.122937521002314
