,subject_id,date,handedness,lang,trial_num,sequence,seq_length,formula,correct_resp,subj_form_resp,accuracy_formula,rt_formula
0,ae31,2020/07/27 11:04:42,right,en,NA,haircut,3,1+1=0,0,0,1,1.0231735919951461
1,ae31,2020/07/27 11:04:42,right,en,NA,"haircut, time",3,1+4=5,1,1,1,0.8440743869869038
2,ae31,2020/07/27 11:04:42,right,en,NA,"haircut, time, mug",3,1+4=6,0,0,1,1.1284520679910202
3,ae31,2020/07/27 11:04:42,right,en,NA,lizard,3,1+5=6,1,1,1,0.6879213370120851
4,ae31,2020/07/27 11:04:42,right,en,NA,"lizard, dad",3,10-2=8,1,1,1,0.7900402870000107
5,ae31,2020/07/27 11:04:42,right,en,NA,"lizard, dad, glider",3,10-3=7,1,1,1,0.7285221799975261
6,ae31,2020/07/27 11:04:42,right,en,NA,couch,3,10-3=8,0,0,1,0.6944202550075715
7,ae31,2020/07/27 11:04:42,right,en,NA,"couch, trench",3,11-1=10,1,1,1,0.471433735001483
8,ae31,2020/07/27 11:04:42,right,en,NA,"couch, trench, atom",3,2+2=4,1,1,1,0.7411738000082551
9,ae31,2020/07/27 11:04:42,right,en,NA,spider,4,2+7=6,0,0,1,1.0279117309983121
10,ae31,2020/07/27 11:04:42,right,en,NA,"spider, mud",4,2+7=9,1,1,1,1.1438012569997227
11,ae31,2020/07/27 11:04:42,right,en,NA,"spider, mud, head",4,2+8=10,1,1,1,0.635833926993655
12,ae31,2020/07/27 11:04:42,right,en,NA,"spider, mud, head, throne",4,20-5=15,1,1,1,2.1251782510080375
13,ae31,2020/07/27 11:04:42,right,en,NA,queen,4,3-1=2,1,1,1,1.07502035300422
14,ae31,2020/07/27 11:04:42,right,en,NA,"queen, flower",4,3+2=5,1,1,1,1.4648210870072944
15,ae31,2020/07/27 11:04:42,right,en,NA,"queen, flower, barber",4,3+6=8,0,0,1,0.6030235970101785
16,ae31,2020/07/27 11:04:42,right,en,NA,"queen, flower, barber, school",4,3+7=10,1,1,1,0.2187777159997495
17,ae31,2020/07/27 11:04:42,right,en,NA,book,4,4-3=2,0,0,1,0.4714514009974664
18,ae31,2020/07/27 11:04:42,right,en,NA,"book, beans",4,4+5=9,1,1,1,1.9529968230053782
19,ae31,2020/07/27 11:04:42,right,en,NA,"book, beans, chair",4,4+6=10,1,1,1,0.9586196239979472
20,ae31,2020/07/27 11:04:42,right,en,NA,"book, beans, chair, measure",4,4+7=11,1,1,1,1.179185492990655
21,ae31,2020/07/27 11:04:42,right,en,NA,shovel,5,5-1=4,1,1,1,0.6932219209993491
22,ae31,2020/07/27 11:04:42,right,en,NA,"shovel, port",5,5-2=3,1,1,1,1.1908252659923164
23,ae31,2020/07/27 11:04:42,right,en,NA,"shovel, port, army",5,5+3=8,1,1,1,0.26525813499756623
24,ae31,2020/07/27 11:04:42,right,en,NA,"shovel, port, army, drill",5,5+3=9,0,0,1,0.6359701190085616
25,ae31,2020/07/27 11:04:42,right,en,NA,"shovel, port, army, drill, stone",5,5+8=15,0,0,1,0.9927692469937028
26,ae31,2020/07/27 11:04:42,right,en,NA,puma,5,6-4=2,1,1,1,0.4446329579950543
27,ae31,2020/07/27 11:04:42,right,en,NA,"puma, lamp",5,6-4=3,0,0,1,0.6015807219955605
28,ae31,2020/07/27 11:04:42,right,en,NA,"puma, lamp, farm",5,6+3=11,0,0,1,1.171064579000813
29,ae31,2020/07/27 11:04:42,right,en,NA,"puma, lamp, farm, radar",5,6+3=8,0,0,1,0.7811301650071982
30,ae31,2020/07/27 11:04:42,right,en,NA,"puma, lamp, farm, radar, jury",5,7-5=4,0,0,1,0.3725287010020111
31,ae31,2020/07/27 11:04:42,right,en,NA,phone,5,7+2=10,0,0,1,1.1817449730006047
32,ae31,2020/07/27 11:04:42,right,en,NA,"phone, stocking",5,7+3=10,1,1,1,0.31295687799865846
33,ae31,2020/07/27 11:04:42,right,en,NA,"phone, stocking, toe",5,8-4=4,1,1,1,0.7721073949942365
34,ae31,2020/07/27 11:04:42,right,en,NA,"phone, stocking, toe, pea",5,8-5=2,0,0,1,1.0800911760015879
35,ae31,2020/07/27 11:04:42,right,en,NA,"phone, stocking, toe, pea, pencil",5,8-6=2,1,1,1,0.6057319410028867
36,ae31,2020/07/27 11:04:42,right,en,NA,soldier,6,8+4=10,0,0,1,2.663248379001743
37,ae31,2020/07/27 11:04:42,right,en,NA,"soldier, cup",6,9-2=7,1,1,1,1.2049360709934263
38,ae31,2020/07/27 11:04:42,right,en,NA,"soldier, cup, rain",6,9-2=8,0,0,1,0.4652545389981242
39,ae31,2020/07/27 11:04:42,right,en,NA,"soldier, cup, rain, food",6,9-3=8,0,0,1,1.1653318210010184
40,ae31,2020/07/27 11:04:42,right,en,NA,"soldier, cup, rain, food, pilot",6,1+1=0,0,0,1,1.0020516500080703
41,ae31,2020/07/27 11:04:42,right,en,NA,"soldier, cup, rain, food, pilot, pond",6,1+4=5,1,1,1,1.702375363005558
42,ae31,2020/07/27 11:04:42,right,en,NA,font,6,1+4=6,0,0,1,0.3761626119958237
43,ae31,2020/07/27 11:04:42,right,en,NA,"font, bear",6,1+5=6,1,1,1,0.3949121160112554
44,ae31,2020/07/27 11:04:42,right,en,NA,"font, bear, bus",6,10-2=8,1,1,1,1.0208579360041767
45,ae31,2020/07/27 11:04:42,right,en,NA,"font, bear, bus, dollar",6,10-3=7,1,1,1,0.3379430909990333
46,ae31,2020/07/27 11:04:42,right,en,NA,"font, bear, bus, dollar, payment",6,10-3=8,0,0,1,2.4219339019909967
47,ae31,2020/07/27 11:04:42,right,en,NA,"font, bear, bus, dollar, payment, beef",6,11-1=10,1,1,1,1.5027253029984422
48,ae31,2020/07/27 11:04:42,right,en,NA,sun,6,2+2=4,1,1,1,0.33938127401052043
49,ae31,2020/07/27 11:04:42,right,en,NA,"sun, toy",6,2+7=6,0,0,1,0.37722216999100056
50,ae31,2020/07/27 11:04:42,right,en,NA,"sun, toy, dog",6,2+7=9,1,1,1,0.5369634829985444
51,ae31,2020/07/27 11:04:42,right,en,NA,"sun, toy, dog, table",6,2+8=10,1,1,1,1.4857955560000846
52,ae31,2020/07/27 11:04:42,right,en,NA,"sun, toy, dog, table, eye",6,20-5=15,1,1,1,0.41927256299823057
53,ae31,2020/07/27 11:04:42,right,en,NA,"sun, toy, dog, table, eye, bowling",6,3-1=2,1,1,1,0.7897616029949859
