,subject_id,date,handedness,lang,trial_num,sequence,seq_length,formula,correct_resp,subj_form_resp,accuracy_formula,rt_formula
0,ie10,2020/02/07 16:31:58,right,en,NA,haircut,3,1+1=0,0,0,1,2.1805254129867535
1,ie10,2020/02/07 16:31:58,right,en,NA,"haircut, time",3,1+4=5,1,1,1,1.415973405004479
2,ie10,2020/02/07 16:31:58,right,en,NA,"haircut, time, mug",3,1+4=6,0,0,1,1.465821068995865
3,ie10,2020/02/07 16:31:58,right,en,NA,lizard,3,1+5=6,1,1,1,1.236997625004733
4,ie10,2020/02/07 16:31:58,right,en,NA,"lizard, dad",3,10-2=8,1,1,1,1.4844384049938526
5,ie10,2020/02/07 16:31:58,right,en,NA,"lizard, dad, glider",3,10-3=7,1,1,1,1.177523846999975
6,ie10,2020/02/07 16:31:58,right,en,NA,couch,3,10-3=8,0,0,1,0.7159088159969542
7,ie10,2020/02/07 16:31:58,right,en,NA,"couch, trench",3,11-1=10,1,1,1,0.7307076280121692
8,ie10,2020/02/07 16:31:58,right,en,NA,"couch, trench, atom",3,2+2=4,1,1,1,0.6175330200057942
9,ie10,2020/02/07 16:31:58,right,en,NA,spider,4,2+7=6,0,0,1,1.0828258819819894
10,ie10,2020/02/07 16:31:58,right,en,NA,"spider, mud",4,2+7=9,1,1,1,0.8771175380097702
11,ie10,2020/02/07 16:31:58,right,en,NA,"spider, mud, head",4,2+8=10,1,1,1,1.4070106500003021
12,ie10,2020/02/07 16:31:58,right,en,NA,"spider, mud, head, throne",4,20-5=15,1,1,1,0.4678275530168321
13,ie10,2020/02/07 16:31:58,right,en,NA,queen,4,3-1=2,1,1,1,1.458054449991323
14,ie10,2020/02/07 16:31:58,right,en,NA,"queen, flower",4,3+2=5,1,1,1,0.4716619329992682
15,ie10,2020/02/07 16:31:58,right,en,NA,"queen, flower, barber",4,3+6=8,0,0,1,1.7841225450101774
16,ie10,2020/02/07 16:31:58,right,en,NA,"queen, flower, barber, school",4,3+7=10,1,1,1,0.3491236540139653
17,ie10,2020/02/07 16:31:58,right,en,NA,book,4,4-3=2,0,0,1,0.8707034969993401
18,ie10,2020/02/07 16:31:58,right,en,NA,"book, beans",4,4+5=9,1,1,1,1.23185705699143
19,ie10,2020/02/07 16:31:58,right,en,NA,"book, beans, chair",4,4+6=10,1,1,1,0.9076049779832829
20,ie10,2020/02/07 16:31:58,right,en,NA,"book, beans, chair, measure",4,4+7=11,1,1,1,2.6944532550114673
21,ie10,2020/02/07 16:31:58,right,en,NA,shovel,5,5-1=4,1,1,1,0.7169019740249496
22,ie10,2020/02/07 16:31:58,right,en,NA,"shovel, port",5,5-2=3,1,1,1,1.4014048200042453
23,ie10,2020/02/07 16:31:58,right,en,NA,"shovel, port, army",5,5+3=8,1,1,1,0.4611078800226096
24,ie10,2020/02/07 16:31:58,right,en,NA,"shovel, port, army, drill",5,5+3=9,0,0,1,0.947683539998252
25,ie10,2020/02/07 16:31:58,right,en,NA,"shovel, port, army, drill, stone",5,5+8=15,0,0,1,4.805424812017009
26,ie10,2020/02/07 16:31:58,right,en,NA,puma,5,6-4=2,1,1,1,0.8251704929862171
27,ie10,2020/02/07 16:31:58,right,en,NA,"puma, lamp",5,6-4=3,0,0,1,1.227129654987948
28,ie10,2020/02/07 16:31:58,right,en,NA,"puma, lamp, farm",5,6+3=11,0,0,1,1.5463578820053954
29,ie10,2020/02/07 16:31:58,right,en,NA,"puma, lamp, farm, radar",5,6+3=8,0,0,1,3.6463810029963497
30,ie10,2020/02/07 16:31:58,right,en,NA,"puma, lamp, farm, radar, jury",5,7-5=4,0,0,1,3.3091109310043976
31,ie10,2020/02/07 16:31:58,right,en,NA,phone,5,7+2=10,0,0,1,1.755026797996834
32,ie10,2020/02/07 16:31:58,right,en,NA,"phone, stocking",5,7+3=10,1,1,1,0.8592421160137746
33,ie10,2020/02/07 16:31:58,right,en,NA,"phone, stocking, toe",5,8-4=4,1,1,1,1.3786651819827966
34,ie10,2020/02/07 16:31:58,right,en,NA,"phone, stocking, toe, pea",5,8-5=2,0,0,1,0.7554654679843225
35,ie10,2020/02/07 16:31:58,right,en,NA,"phone, stocking, toe, pea, pencil",5,8-6=2,1,1,1,1.4543749159784056
36,ie10,2020/02/07 16:31:58,right,en,NA,soldier,6,8+4=10,0,0,1,0.734953036007937
37,ie10,2020/02/07 16:31:58,right,en,NA,"soldier, cup",6,9-2=7,1,1,1,1.3081113820080645
38,ie10,2020/02/07 16:31:58,right,en,NA,"soldier, cup, rain",6,9-2=8,0,0,1,0.9385694439988583
39,ie10,2020/02/07 16:31:58,right,en,NA,"soldier, cup, rain, food",6,9-3=8,0,0,1,0.8375840070075355
40,ie10,2020/02/07 16:31:58,right,en,NA,"soldier, cup, rain, food, pilot",6,1+1=0,0,0,1,0.8282050410052761
41,ie10,2020/02/07 16:31:58,right,en,NA,"soldier, cup, rain, food, pilot, pond",6,1+4=5,1,1,1,0.9133258360088803
42,ie10,2020/02/07 16:31:58,right,en,NA,font,6,1+4=6,0,0,1,1.5339688579842914
43,ie10,2020/02/07 16:31:58,right,en,NA,"font, bear",6,1+5=6,1,1,1,0.9687087799829897
44,ie10,2020/02/07 16:31:58,right,en,NA,"font, bear, bus",6,10-2=8,1,1,1,0.2801432200067211
45,ie10,2020/02/07 16:31:58,right,en,NA,"font, bear, bus, dollar",6,10-3=7,1,1,1,1.967299987009028
46,ie10,2020/02/07 16:31:58,right,en,NA,"font, bear, bus, dollar, payment",6,10-3=8,0,0,1,0.6530901709920727
47,ie10,2020/02/07 16:31:58,right,en,NA,"font, bear, bus, dollar, payment, beef",6,11-1=10,1,1,1,1.4192935019964352
48,ie10,2020/02/07 16:31:58,right,en,NA,sun,6,2+2=4,1,1,1,3.377271926001413
49,ie10,2020/02/07 16:31:58,right,en,NA,"sun, toy",6,2+7=6,0,0,1,1.4879196140100248
50,ie10,2020/02/07 16:31:58,right,en,NA,"sun, toy, dog",6,2+7=9,1,1,1,2.2336349909892306
51,ie10,2020/02/07 16:31:58,right,en,NA,"sun, toy, dog, table",6,2+8=10,1,1,1,0.4354055980220437
52,ie10,2020/02/07 16:31:58,right,en,NA,"sun, toy, dog, table, eye",6,20-5=15,1,1,1,0.4987059079867322
53,ie10,2020/02/07 16:31:58,right,en,NA,"sun, toy, dog, table, eye, bowling",6,3-1=2,1,1,1,1.1203284410003107
