,subject_id,date,handedness,lang,trial_num,sequence,seq_length,formula,correct_resp,subj_form_resp,accuracy_formula,rt_formula
0,ie21,2020/07/14 12:32:13,right,en,NA,haircut,3,1+1=0,0,0,1,0.8719103780022124
1,ie21,2020/07/14 12:32:13,right,en,NA,"haircut, time",3,1+4=5,1,1,1,0.5527939110033913
2,ie21,2020/07/14 12:32:13,right,en,NA,"haircut, time, mug",3,1+4=6,0,0,1,0.8755498219979927
3,ie21,2020/07/14 12:32:13,right,en,NA,lizard,3,1+5=6,1,1,1,0.4612858550026431
4,ie21,2020/07/14 12:32:13,right,en,NA,"lizard, dad",3,10-2=8,1,1,1,0.7179921950009884
5,ie21,2020/07/14 12:32:13,right,en,NA,"lizard, dad, glider",3,10-3=7,1,1,1,0.7285513520037057
6,ie21,2020/07/14 12:32:13,right,en,NA,couch,3,10-3=8,0,0,1,0.6929797070042696
7,ie21,2020/07/14 12:32:13,right,en,NA,"couch, trench",3,11-1=10,1,1,1,0.5979994470035308
8,ie21,2020/07/14 12:32:13,right,en,NA,"couch, trench, atom",3,2+2=4,1,1,1,0.6153189410033519
9,ie21,2020/07/14 12:32:13,right,en,NA,spider,4,2+7=6,0,0,1,0.3937467870055116
10,ie21,2020/07/14 12:32:13,right,en,NA,"spider, mud",4,2+7=9,1,1,1,0.37707195399707416
11,ie21,2020/07/14 12:32:13,right,en,NA,"spider, mud, head",4,2+8=10,1,1,1,0.6058056679976289
12,ie21,2020/07/14 12:32:13,right,en,NA,"spider, mud, head, throne",4,20-5=15,1,1,1,0.7669058270039386
13,ie21,2020/07/14 12:32:13,right,en,NA,queen,4,3-1=2,1,1,1,0.46855424599925755
14,ie21,2020/07/14 12:32:13,right,en,NA,"queen, flower",4,3+2=5,1,1,1,0.7019277340004919
15,ie21,2020/07/14 12:32:13,right,en,NA,"queen, flower, barber",4,3+6=8,0,0,1,1.0090275429975009
16,ie21,2020/07/14 12:32:13,right,en,NA,"queen, flower, barber, school",4,3+7=10,1,1,1,0.36188461799611105
17,ie21,2020/07/14 12:32:13,right,en,NA,book,4,4-3=2,0,0,1,0.25043872500100406
18,ie21,2020/07/14 12:32:13,right,en,NA,"book, beans",4,4+5=9,1,1,1,1.3664255319963559
19,ie21,2020/07/14 12:32:13,right,en,NA,"book, beans, chair",4,4+6=10,1,1,1,1.7680742020020261
20,ie21,2020/07/14 12:32:13,right,en,NA,"book, beans, chair, measure",4,4+7=11,1,1,1,0.7328106360000675
21,ie21,2020/07/14 12:32:13,right,en,NA,shovel,5,5-1=4,1,1,1,1.0809785130040837
22,ie21,2020/07/14 12:32:13,right,en,NA,"shovel, port",5,5-2=3,1,1,1,1.6171621670000604
23,ie21,2020/07/14 12:32:13,right,en,NA,"shovel, port, army",5,5+3=8,1,1,1,0.7120616719985264
24,ie21,2020/07/14 12:32:13,right,en,NA,"shovel, port, army, drill",5,5+3=9,0,0,1,0.12603728199610487
25,ie21,2020/07/14 12:32:13,right,en,NA,"shovel, port, army, drill, stone",5,5+8=15,0,0,1,1.5345936750018154
26,ie21,2020/07/14 12:32:13,right,en,NA,puma,5,6-4=2,1,1,1,0.9060351849984727
27,ie21,2020/07/14 12:32:13,right,en,NA,"puma, lamp",5,6-4=3,0,0,1,0.8193118519993732
28,ie21,2020/07/14 12:32:13,right,en,NA,"puma, lamp, farm",5,6+3=11,0,0,1,0.8139586089964723
29,ie21,2020/07/14 12:32:13,right,en,NA,"puma, lamp, farm, radar",5,6+3=8,0,0,1,0.9415720269971644
30,ie21,2020/07/14 12:32:13,right,en,NA,"puma, lamp, farm, radar, jury",5,7-5=4,0,0,1,2.570250759999908
31,ie21,2020/07/14 12:32:13,right,en,NA,phone,5,7+2=10,0,0,1,1.3838303760057897
32,ie21,2020/07/14 12:32:13,right,en,NA,"phone, stocking",5,7+3=10,1,1,1,0.40127681799640413
33,ie21,2020/07/14 12:32:13,right,en,NA,"phone, stocking, toe",5,8-4=4,1,1,1,0.9397099670022726
34,ie21,2020/07/14 12:32:13,right,en,NA,"phone, stocking, toe, pea",5,8-5=2,0,0,1,1.1015741809969768
35,ie21,2020/07/14 12:32:13,right,en,NA,"phone, stocking, toe, pea, pencil",5,8-6=2,1,1,1,1.047724850999657
36,ie21,2020/07/14 12:32:13,right,en,NA,soldier,6,8+4=10,0,0,1,0.43883443999948213
37,ie21,2020/07/14 12:32:13,right,en,NA,"soldier, cup",6,9-2=7,1,1,1,0.26393565599573776
38,ie21,2020/07/14 12:32:13,right,en,NA,"soldier, cup, rain",6,9-2=8,0,0,1,0.5415828019977198
39,ie21,2020/07/14 12:32:13,right,en,NA,"soldier, cup, rain, food",6,9-3=8,0,0,1,1.4473691449966282
40,ie21,2020/07/14 12:32:13,right,en,NA,"soldier, cup, rain, food, pilot",6,1+1=0,0,0,1,0.7612143240039586
41,ie21,2020/07/14 12:32:13,right,en,NA,"soldier, cup, rain, food, pilot, pond",6,1+4=5,1,1,1,0.9461004019976826
42,ie21,2020/07/14 12:32:13,right,en,NA,font,6,1+4=6,0,0,1,0.6065649320007651
43,ie21,2020/07/14 12:32:13,right,en,NA,"font, bear",6,1+5=6,1,1,1,0.6184450090004248
44,ie21,2020/07/14 12:32:13,right,en,NA,"font, bear, bus",6,10-2=8,1,1,1,0.7272658629954094
45,ie21,2020/07/14 12:32:13,right,en,NA,"font, bear, bus, dollar",6,10-3=7,1,1,1,0.44269600799452746
46,ie21,2020/07/14 12:32:13,right,en,NA,"font, bear, bus, dollar, payment",6,10-3=8,0,0,1,0.5491448399989167
47,ie21,2020/07/14 12:32:13,right,en,NA,"font, bear, bus, dollar, payment, beef",6,11-1=10,1,1,1,0.582075447004172
48,ie21,2020/07/14 12:32:13,right,en,NA,sun,6,2+2=4,1,1,1,0.5712102420002338
49,ie21,2020/07/14 12:32:13,right,en,NA,"sun, toy",6,2+7=6,0,0,1,0.6010495459995582
50,ie21,2020/07/14 12:32:13,right,en,NA,"sun, toy, dog",6,2+7=9,1,1,1,0.6472087420042953
51,ie21,2020/07/14 12:32:13,right,en,NA,"sun, toy, dog, table",6,2+8=10,1,1,1,0.5250414059992181
52,ie21,2020/07/14 12:32:13,right,en,NA,"sun, toy, dog, table, eye",6,20-5=15,1,0,0,0.7685204760055058
53,ie21,2020/07/14 12:32:13,right,en,NA,"sun, toy, dog, table, eye, bowling",6,3-1=2,1,1,1,1.4639394139958313
