,subject_id,date,handedness,lang,trial_num,sequence,seq_length,formula,correct_resp,subj_form_resp,accuracy_formula,rt_formula
0,mo03,2019/12/30 11:35:14,right,es,NA,haircut,3,1+1=0,0,0,1,1.4197071910002705
1,mo03,2019/12/30 11:35:14,right,es,NA,"haircut, time",3,1+4=5,1,1,1,0.9946595119999984
2,mo03,2019/12/30 11:35:14,right,es,NA,"haircut, time, mug",3,1+4=6,0,0,1,1.8694795020001038
3,mo03,2019/12/30 11:35:14,right,es,NA,lizard,3,1+5=6,1,1,1,0.9117969979997724
4,mo03,2019/12/30 11:35:14,right,es,NA,"lizard, dad",3,10-2=8,1,1,1,0.7798577409994323
5,mo03,2019/12/30 11:35:14,right,es,NA,"lizard, dad, glider",3,10-3=7,1,1,1,0.753080972999669
6,mo03,2019/12/30 11:35:14,right,es,NA,couch,3,10-3=8,0,0,1,0.8536976149989641
7,mo03,2019/12/30 11:35:14,right,es,NA,"couch, trench",3,11-1=10,1,1,1,0.5189245370002027
8,mo03,2019/12/30 11:35:14,right,es,NA,"couch, trench, atom",3,2+2=4,1,1,1,0.7654395449990261
9,mo03,2019/12/30 11:35:14,right,es,NA,spider,4,2+7=6,0,0,1,1.2336044319999928
10,mo03,2019/12/30 11:35:14,right,es,NA,"spider, mud",4,2+7=9,1,1,1,0.7607694800008176
11,mo03,2019/12/30 11:35:14,right,es,NA,"spider, mud, head",4,2+8=10,1,1,1,0.561418124998454
12,mo03,2019/12/30 11:35:14,right,es,NA,"spider, mud, head, throne",4,20-5=15,1,1,1,1.1224786580005457
13,mo03,2019/12/30 11:35:14,right,es,NA,queen,4,3-1=2,1,1,1,0.6688133980005659
14,mo03,2019/12/30 11:35:14,right,es,NA,"queen, flower",4,3+2=5,1,1,1,0.7053166629993939
15,mo03,2019/12/30 11:35:14,right,es,NA,"queen, flower, barber",4,3+6=8,0,0,1,1.4508209949999582
16,mo03,2019/12/30 11:35:14,right,es,NA,"queen, flower, barber, school",4,3+7=10,1,1,1,0.5600333710008272
17,mo03,2019/12/30 11:35:14,right,es,NA,book,4,4-3=2,0,0,1,0.5138147500001651
18,mo03,2019/12/30 11:35:14,right,es,NA,"book, beans",4,4+5=9,1,1,1,0.9759482370009209
19,mo03,2019/12/30 11:35:14,right,es,NA,"book, beans, chair",4,4+6=10,1,1,1,0.3781250659994839
20,mo03,2019/12/30 11:35:14,right,es,NA,"book, beans, chair, measure",4,4+7=11,1,1,1,1.3795872979990236
21,mo03,2019/12/30 11:35:14,right,es,NA,shovel,5,5-1=4,1,1,1,0.4665796709996357
22,mo03,2019/12/30 11:35:14,right,es,NA,"shovel, port",5,5-2=3,1,1,1,0.5658360020006512
23,mo03,2019/12/30 11:35:14,right,es,NA,"shovel, port, army",5,5+3=8,1,1,1,0.9634254020002118
24,mo03,2019/12/30 11:35:14,right,es,NA,"shovel, port, army, drill",5,5+3=9,0,0,1,0.44323297399932926
25,mo03,2019/12/30 11:35:14,right,es,NA,"shovel, port, army, drill, stone",5,5+8=15,0,1,0,4.9877498780006135
26,mo03,2019/12/30 11:35:14,right,es,NA,puma,5,6-4=2,1,1,1,0.2756095019994973
27,mo03,2019/12/30 11:35:14,right,es,NA,"puma, lamp",5,6-4=3,0,0,1,0.6218838130007498
28,mo03,2019/12/30 11:35:14,right,es,NA,"puma, lamp, farm",5,6+3=11,0,0,1,1.1610658059998968
29,mo03,2019/12/30 11:35:14,right,es,NA,"puma, lamp, farm, radar",5,6+3=8,0,0,1,2.6271490670005733
30,mo03,2019/12/30 11:35:14,right,es,NA,"puma, lamp, farm, radar, jury",5,7-5=4,0,0,1,2.7661925720003637
31,mo03,2019/12/30 11:35:14,right,es,NA,phone,5,7+2=10,0,0,1,0.8469856920000893
32,mo03,2019/12/30 11:35:14,right,es,NA,"phone, stocking",5,7+3=10,1,1,1,0.4204194339999958
33,mo03,2019/12/30 11:35:14,right,es,NA,"phone, stocking, toe",5,8-4=4,1,1,1,1.1968702529993607
34,mo03,2019/12/30 11:35:14,right,es,NA,"phone, stocking, toe, pea",5,8-5=2,0,0,1,1.525753074000022
35,mo03,2019/12/30 11:35:14,right,es,NA,"phone, stocking, toe, pea, pencil",5,8-6=2,1,1,1,0.4075094330000866
36,mo03,2019/12/30 11:35:14,right,es,NA,soldier,6,8+4=10,0,0,1,1.8230811209996318
37,mo03,2019/12/30 11:35:14,right,es,NA,"soldier, cup",6,9-2=7,1,1,1,0.5633539680002286
38,mo03,2019/12/30 11:35:14,right,es,NA,"soldier, cup, rain",6,9-2=8,0,0,1,0.5395307710005
39,mo03,2019/12/30 11:35:14,right,es,NA,"soldier, cup, rain, food",6,9-3=8,0,0,1,0.5210004670007038
40,mo03,2019/12/30 11:35:14,right,es,NA,"soldier, cup, rain, food, pilot",6,1+1=0,0,0,1,1.140727705000245
41,mo03,2019/12/30 11:35:14,right,es,NA,"soldier, cup, rain, food, pilot, pond",6,1+4=5,1,1,1,0.6196512389997224
42,mo03,2019/12/30 11:35:14,right,es,NA,font,6,1+4=6,0,0,1,2.795424587000525
43,mo03,2019/12/30 11:35:14,right,es,NA,"font, bear",6,1+5=6,1,1,1,2.5469411659996695
44,mo03,2019/12/30 11:35:14,right,es,NA,"font, bear, bus",6,10-2=8,1,1,1,1.2495142589996249
45,mo03,2019/12/30 11:35:14,right,es,NA,"font, bear, bus, dollar",6,10-3=7,1,1,1,0.9052215589999832
46,mo03,2019/12/30 11:35:14,right,es,NA,"font, bear, bus, dollar, payment",6,10-3=8,0,0,1,0.3605224389993964
47,mo03,2019/12/30 11:35:14,right,es,NA,"font, bear, bus, dollar, payment, beef",6,11-1=10,1,1,1,1.9590381710004294
48,mo03,2019/12/30 11:35:14,right,es,NA,sun,6,2+2=4,1,1,1,0.5251320819988905
49,mo03,2019/12/30 11:35:14,right,es,NA,"sun, toy",6,2+7=6,0,0,1,0.6053197300007014
50,mo03,2019/12/30 11:35:14,right,es,NA,"sun, toy, dog",6,2+7=9,1,1,1,0.4146667910008546
51,mo03,2019/12/30 11:35:14,right,es,NA,"sun, toy, dog, table",6,2+8=10,1,1,1,2.2099923599998874
52,mo03,2019/12/30 11:35:14,right,es,NA,"sun, toy, dog, table, eye",6,20-5=15,1,1,1,1.3281016170003568
53,mo03,2019/12/30 11:35:14,right,es,NA,"sun, toy, dog, table, eye, bowling",6,3-1=2,1,1,1,0.686243004998687
