,subject_id,date,handedness,lang,trial_num,sequence,seq_length,formula,correct_resp,subj_form_resp,accuracy_formula,rt_formula
0,mo21,2020/01/07 19:54:16,right,es,NA,haircut,3,1+1=0,0,0,1,3.2009057909999683
1,mo21,2020/01/07 19:54:16,right,es,NA,"haircut, time",3,1+4=5,1,1,1,2.1848108939993836
2,mo21,2020/01/07 19:54:16,right,es,NA,"haircut, time, mug",3,1+4=6,0,0,1,3.1523297089988773
3,mo21,2020/01/07 19:54:16,right,es,NA,lizard,3,1+5=6,1,1,1,1.5918131649996212
4,mo21,2020/01/07 19:54:16,right,es,NA,"lizard, dad",3,10-2=8,1,1,1,1.8853656510000292
5,mo21,2020/01/07 19:54:16,right,es,NA,"lizard, dad, glider",3,10-3=7,1,1,1,2.033024125999873
6,mo21,2020/01/07 19:54:16,right,es,NA,couch,3,10-3=8,0,0,1,3.449729092999405
7,mo21,2020/01/07 19:54:16,right,es,NA,"couch, trench",3,11-1=10,1,0,0,3.4363211849995423
8,mo21,2020/01/07 19:54:16,right,es,NA,"couch, trench, atom",3,2+2=4,1,1,1,1.2933850119989074
9,mo21,2020/01/07 19:54:16,right,es,NA,spider,4,2+7=6,0,0,1,2.4891945979998127
10,mo21,2020/01/07 19:54:16,right,es,NA,"spider, mud",4,2+7=9,1,1,1,2.2486093249990518
11,mo21,2020/01/07 19:54:16,right,es,NA,"spider, mud, head",4,2+8=10,1,1,1,1.8883669219994772
12,mo21,2020/01/07 19:54:16,right,es,NA,"spider, mud, head, throne",4,20-5=15,1,1,1,2.624412102999486
13,mo21,2020/01/07 19:54:16,right,es,NA,queen,4,3-1=2,1,1,1,4.773093023000911
14,mo21,2020/01/07 19:54:16,right,es,NA,"queen, flower",4,3+2=5,1,1,1,2.345655782000904
15,mo21,2020/01/07 19:54:16,right,es,NA,"queen, flower, barber",4,3+6=8,0,0,1,6.43444843799989
16,mo21,2020/01/07 19:54:16,right,es,NA,"queen, flower, barber, school",4,3+7=10,1,1,1,2.874746752999272
17,mo21,2020/01/07 19:54:16,right,es,NA,book,4,4-3=2,0,0,1,4.1285014289987885
18,mo21,2020/01/07 19:54:16,right,es,NA,"book, beans",4,4+5=9,1,1,1,1.3963503199993283
19,mo21,2020/01/07 19:54:16,right,es,NA,"book, beans, chair",4,4+6=10,1,1,1,4.281076885999937
20,mo21,2020/01/07 19:54:16,right,es,NA,"book, beans, chair, measure",4,4+7=11,1,1,1,2.6035587639998994
21,mo21,2020/01/07 19:54:16,right,es,NA,shovel,5,5-1=4,1,1,1,1.2570743029991718
22,mo21,2020/01/07 19:54:16,right,es,NA,"shovel, port",5,5-2=3,1,1,1,3.2057000839995453
23,mo21,2020/01/07 19:54:16,right,es,NA,"shovel, port, army",5,5+3=8,1,1,1,1.5802653259997896
24,mo21,2020/01/07 19:54:16,right,es,NA,"shovel, port, army, drill",5,5+3=9,0,0,1,4.402716463999241
25,mo21,2020/01/07 19:54:16,right,es,NA,"shovel, port, army, drill, stone",5,5+8=15,0,0,1,4.843434361000618
26,mo21,2020/01/07 19:54:16,right,es,NA,puma,5,6-4=2,1,1,1,6.025796326999625
27,mo21,2020/01/07 19:54:16,right,es,NA,"puma, lamp",5,6-4=3,0,0,1,3.1623595420005586
28,mo21,2020/01/07 19:54:16,right,es,NA,"puma, lamp, farm",5,6+3=11,0,0,1,7.107997675000661
29,mo21,2020/01/07 19:54:16,right,es,NA,"puma, lamp, farm, radar",5,6+3=8,0,0,1,3.7328803410000546
30,mo21,2020/01/07 19:54:16,right,es,NA,"puma, lamp, farm, radar, jury",5,7-5=4,0,0,1,8.813348800998938
31,mo21,2020/01/07 19:54:16,right,es,NA,phone,5,7+2=10,0,0,1,4.702862618001745
32,mo21,2020/01/07 19:54:16,right,es,NA,"phone, stocking",5,7+3=10,1,1,1,12.061130095999033
33,mo21,2020/01/07 19:54:16,right,es,NA,"phone, stocking, toe",5,8-4=4,1,1,1,4.043310823999491
34,mo21,2020/01/07 19:54:16,right,es,NA,"phone, stocking, toe, pea",5,8-5=2,0,0,1,8.271099992000018
35,mo21,2020/01/07 19:54:16,right,es,NA,"phone, stocking, toe, pea, pencil",5,8-6=2,1,1,1,7.409751299999698
36,mo21,2020/01/07 19:54:16,right,es,NA,soldier,6,8+4=10,0,0,1,4.350244675000795
37,mo21,2020/01/07 19:54:16,right,es,NA,"soldier, cup",6,9-2=7,1,1,1,2.3368519109990302
38,mo21,2020/01/07 19:54:16,right,es,NA,"soldier, cup, rain",6,9-2=8,0,0,1,2.1457555440010765
39,mo21,2020/01/07 19:54:16,right,es,NA,"soldier, cup, rain, food",6,9-3=8,0,0,1,6.3423462889986695
40,mo21,2020/01/07 19:54:16,right,es,NA,"soldier, cup, rain, food, pilot",6,1+1=0,0,0,1,1.76068271099939
41,mo21,2020/01/07 19:54:16,right,es,NA,"soldier, cup, rain, food, pilot, pond",6,1+4=5,1,1,1,4.235278974998437
42,mo21,2020/01/07 19:54:16,right,es,NA,font,6,1+4=6,0,0,1,3.2040841590005584
43,mo21,2020/01/07 19:54:16,right,es,NA,"font, bear",6,1+5=6,1,1,1,5.290228029998616
44,mo21,2020/01/07 19:54:16,right,es,NA,"font, bear, bus",6,10-2=8,1,1,1,1.9876759779999702
45,mo21,2020/01/07 19:54:16,right,es,NA,"font, bear, bus, dollar",6,10-3=7,1,1,1,4.133274994999738
46,mo21,2020/01/07 19:54:16,right,es,NA,"font, bear, bus, dollar, payment",6,10-3=8,0,1,0,7.721035837001182
47,mo21,2020/01/07 19:54:16,right,es,NA,"font, bear, bus, dollar, payment, beef",6,11-1=10,1,1,1,3.555679119999695
48,mo21,2020/01/07 19:54:16,right,es,NA,sun,6,2+2=4,1,1,1,0.939681825999287
49,mo21,2020/01/07 19:54:16,right,es,NA,"sun, toy",6,2+7=6,0,0,1,1.907108462000906
50,mo21,2020/01/07 19:54:16,right,es,NA,"sun, toy, dog",6,2+7=9,1,1,1,3.188805563999267
51,mo21,2020/01/07 19:54:16,right,es,NA,"sun, toy, dog, table",6,2+8=10,1,1,1,2.999709743000494
52,mo21,2020/01/07 19:54:16,right,es,NA,"sun, toy, dog, table, eye",6,20-5=15,1,1,1,3.3490549119997013
53,mo21,2020/01/07 19:54:16,right,es,NA,"sun, toy, dog, table, eye, bowling",6,3-1=2,1,1,1,4.847004023999034
