,subject_id,date,handedness,lang,trial_num,sequence,seq_length,formula,correct_resp,subj_form_resp,accuracy_formula,rt_formula
0,us02,2019/12/13 09:59:01,right,en,NA,haircut,3,1+1=0,0,0,1,0.7602601880207658
1,us02,2019/12/13 09:59:01,right,en,NA,"haircut, time",3,1+4=5,1,1,1,0.6588790860259905
2,us02,2019/12/13 09:59:01,right,en,NA,"haircut, time, mug",3,1+4=6,0,0,1,1.2553582970285788
3,us02,2019/12/13 09:59:01,right,en,NA,lizard,3,1+5=6,1,1,1,0.5590023830300197
4,us02,2019/12/13 09:59:01,right,en,NA,"lizard, dad",3,10-2=8,1,1,1,0.6421834779903293
5,us02,2019/12/13 09:59:01,right,en,NA,"lizard, dad, glider",3,10-3=7,1,1,1,1.1394882310414687
6,us02,2019/12/13 09:59:01,right,en,NA,couch,3,10-3=8,0,0,1,0.8954294810537249
7,us02,2019/12/13 09:59:01,right,en,NA,"couch, trench",3,11-1=10,1,1,1,0.607846571947448
8,us02,2019/12/13 09:59:01,right,en,NA,"couch, trench, atom",3,2+2=4,1,1,1,0.7864885129965842
9,us02,2019/12/13 09:59:01,right,en,NA,spider,4,2+7=6,0,0,1,0.5637800809927285
10,us02,2019/12/13 09:59:01,right,en,NA,"spider, mud",4,2+7=9,1,1,1,1.323451771051623
11,us02,2019/12/13 09:59:01,right,en,NA,"spider, mud, head",4,2+8=10,1,1,1,0.9513146029785275
12,us02,2019/12/13 09:59:01,right,en,NA,"spider, mud, head, throne",4,20-5=15,1,1,1,0.9999896379886195
13,us02,2019/12/13 09:59:01,right,en,NA,queen,4,3-1=2,1,1,1,0.9167191740125418
14,us02,2019/12/13 09:59:01,right,en,NA,"queen, flower",4,3+2=5,1,1,1,0.6836072750156745
15,us02,2019/12/13 09:59:01,right,en,NA,"queen, flower, barber",4,3+6=8,0,0,1,0.5759295859606937
16,us02,2019/12/13 09:59:01,right,en,NA,"queen, flower, barber, school",4,3+7=10,1,1,1,0.5668245810084045
17,us02,2019/12/13 09:59:01,right,en,NA,book,4,4-3=2,0,0,1,0.7388455109903589
18,us02,2019/12/13 09:59:01,right,en,NA,"book, beans",4,4+5=9,1,1,1,1.0628480339655653
19,us02,2019/12/13 09:59:01,right,en,NA,"book, beans, chair",4,4+6=10,1,1,1,1.5398243659874424
20,us02,2019/12/13 09:59:01,right,en,NA,"book, beans, chair, measure",4,4+7=11,1,1,1,0.9021213710075244
21,us02,2019/12/13 09:59:01,right,en,NA,shovel,5,5-1=4,1,1,1,1.2044662240659818
22,us02,2019/12/13 09:59:01,right,en,NA,"shovel, port",5,5-2=3,1,1,1,1.6118405930465087
23,us02,2019/12/13 09:59:01,right,en,NA,"shovel, port, army",5,5+3=8,1,1,1,0.5707840439863503
24,us02,2019/12/13 09:59:01,right,en,NA,"shovel, port, army, drill",5,5+3=9,0,0,1,0.621845138957724
25,us02,2019/12/13 09:59:01,right,en,NA,"shovel, port, army, drill, stone",5,5+8=15,0,1,0,1.055926505010575
26,us02,2019/12/13 09:59:01,right,en,NA,puma,5,6-4=2,1,1,1,0.6192230520537123
27,us02,2019/12/13 09:59:01,right,en,NA,"puma, lamp",5,6-4=3,0,0,1,0.6223387289792299
28,us02,2019/12/13 09:59:01,right,en,NA,"puma, lamp, farm",5,6+3=11,0,0,1,0.6710842880420387
29,us02,2019/12/13 09:59:01,right,en,NA,"puma, lamp, farm, radar",5,6+3=8,0,0,1,1.2386166100623086
30,us02,2019/12/13 09:59:01,right,en,NA,"puma, lamp, farm, radar, jury",5,7-5=4,0,0,1,1.1686810039682314
31,us02,2019/12/13 09:59:01,right,en,NA,phone,5,7+2=10,0,0,1,1.0942904490511864
32,us02,2019/12/13 09:59:01,right,en,NA,"phone, stocking",5,7+3=10,1,1,1,0.6024473170982674
33,us02,2019/12/13 09:59:01,right,en,NA,"phone, stocking, toe",5,8-4=4,1,1,1,1.0093418780015782
34,us02,2019/12/13 09:59:01,right,en,NA,"phone, stocking, toe, pea",5,8-5=2,0,0,1,2.1111393329920247
35,us02,2019/12/13 09:59:01,right,en,NA,"phone, stocking, toe, pea, pencil",5,8-6=2,1,0,0,1.4937227219343185
36,us02,2019/12/13 09:59:01,right,en,NA,soldier,6,8+4=10,0,0,1,0.2209584480151534
37,us02,2019/12/13 09:59:01,right,en,NA,"soldier, cup",6,9-2=7,1,1,1,0.4872131319716573
38,us02,2019/12/13 09:59:01,right,en,NA,"soldier, cup, rain",6,9-2=8,0,0,1,0.5423352159559727
39,us02,2019/12/13 09:59:01,right,en,NA,"soldier, cup, rain, food",6,9-3=8,0,0,1,1.144690359942615
40,us02,2019/12/13 09:59:01,right,en,NA,"soldier, cup, rain, food, pilot",6,1+1=0,0,0,1,0.8890790729783475
41,us02,2019/12/13 09:59:01,right,en,NA,"soldier, cup, rain, food, pilot, pond",6,1+4=5,1,1,1,0.8286022329702973
42,us02,2019/12/13 09:59:01,right,en,NA,font,6,1+4=6,0,0,1,0.45164511690381914
43,us02,2019/12/13 09:59:01,right,en,NA,"font, bear",6,1+5=6,1,1,1,1.0781642399961129
44,us02,2019/12/13 09:59:01,right,en,NA,"font, bear, bus",6,10-2=8,1,1,1,1.099989308975637
45,us02,2019/12/13 09:59:01,right,en,NA,"font, bear, bus, dollar",6,10-3=7,1,1,1,0.48572483309544623
46,us02,2019/12/13 09:59:01,right,en,NA,"font, bear, bus, dollar, payment",6,10-3=8,0,0,1,0.7865538760088384
47,us02,2019/12/13 09:59:01,right,en,NA,"font, bear, bus, dollar, payment, beef",6,11-1=10,1,1,1,0.7613079530419782
48,us02,2019/12/13 09:59:01,right,en,NA,sun,6,2+2=4,1,1,1,0.8256986779160798
49,us02,2019/12/13 09:59:01,right,en,NA,"sun, toy",6,2+7=6,0,0,1,0.5003828959306702
50,us02,2019/12/13 09:59:01,right,en,NA,"sun, toy, dog",6,2+7=9,1,1,1,0.38376672996673733
51,us02,2019/12/13 09:59:01,right,en,NA,"sun, toy, dog, table",6,2+8=10,1,1,1,1.027410172042437
52,us02,2019/12/13 09:59:01,right,en,NA,"sun, toy, dog, table, eye",6,20-5=15,1,1,1,1.121219392050989
53,us02,2019/12/13 09:59:01,right,en,NA,"sun, toy, dog, table, eye, bowling",6,3-1=2,1,1,1,0.9917635379824787
